ExperimentName,Subject,Session,Clock.Information,DataFile.Basename,Display.RefreshRate,ExperimentVersion,Group,RandomSeed,RuntimeVersion,RuntimeVersionExpected,SessionDate,SessionStartDateTimeUtc,SessionTime,StudioVersion,Block,Condition,ConditionList,ConditionList.Cycle,ConditionList.Sample,Procedure[Block],Running[Block],Trial,A1,A2,A3,CVCCRESP,CVCRESP,CVXCRESP,EnglishBig,EnglishPlural,EnglishTest,EnglishWord,FakeCV,FakeCVC,FakeCVX,FakePlural,FakeWord,ItemNumber,Order1,Order3,Order5,PLURALCRESP,Procedure[Trial],Prompt,Prompt.CRESP,Prompt.Word,Running[Trial],StimDisplay.ACC,StimDisplay.CRESP,StimDisplay.DurationError,StimDisplay.OnsetDelay,StimDisplay.OnsetTime,StimDisplay.OnsetToOnsetTime,StimDisplay.RESP,StimDisplay.RT,StimDisplay.RTTime,TrialList1,TrialList1.Cycle,TrialList1.Sample
FHList1June8,1,1,"<?xml version=""1.0""?>\n<Clock xmlns:dt=""urn:schemas-microsoft-com:datatypes""><Description dt:dt=""string"">E-Prime Primary Realtime Clock</Description><StartTime><Timestamp dt:dt=""int"">0</Timestamp><DateUtc dt:dt=""string"">2012-09-05T20:18:34Z</DateUtc></StartTime><FrequencyChanges><FrequencyChange><Frequency dt:dt=""r8"">3399980000</Frequency><Timestamp dt:dt=""r8"">1251152450007</Timestamp><Current dt:dt=""r8"">0</Current><DateUtc dt:dt=""string"">2012-09-05T20:18:34Z</DateUtc></FrequencyChange></FrequencyChanges></Clock>\n",FHList1June8-1-1,60,1.0.0.1,1,2004208837,2.0.10.242,2.0.10.242,9/5/2012,9/5/2012 20:18,13:18:34,2.0.10.147,1,CV,1,2,1,ListProc,ConditionList,1,taksilutaksilu,tataksilu,taktaksilu,5,3,5,big blanket,blankets,big blanket,blanket,tataksilu,taktaksilu,taktaksilu,taksilutaksilu,taksilu,142,5,1,3,1,TrialProc,Big,3,tataksilu,TrialList1,0,3,-1,16,63655,7034,,0,0,142,1,1
FHList1June8,1,1,"<?xml version=""1.0""?>\n<Clock xmlns:dt=""urn:schemas-microsoft-com:datatypes""><Description dt:dt=""string"">E-Prime Primary Realtime Clock</Description><StartTime><Timestamp dt:dt=""int"">0</Timestamp><DateUtc dt:dt=""string"">2012-09-05T20:18:34Z</DateUtc></StartTime><FrequencyChanges><FrequencyChange><Frequency dt:dt=""r8"">3399980000</Frequency><Timestamp dt:dt=""r8"">1251152450007</Timestamp><Current dt:dt=""r8"">0</Current><DateUtc dt:dt=""string"">2012-09-05T20:18:34Z</DateUtc></FrequencyChange></FrequencyChanges></Clock>\n",FHList1June8-1-1,60,1.0.0.1,1,2004208837,2.0.10.242,2.0.10.242,9/5/2012,9/5/2012 20:18,13:18:34,2.0.10.147,1,CV,1,2,1,ListProc,ConditionList,2,hitrukahitruka,hihitruka,hithitruka,5,3,5,big horn,horns,horns,horn,hihitruka,hithitruka,hithitruka,hitrukahitruka,hitruka,34,5,1,3,1,TrialProc,Plural,1,hitrukahitruka,TrialList1,1,1,"-999,999",1,73206,0,1,5212,78418,34,1,2
FHList1June8,1,1,"<?xml version=""1.0""?>\n<Clock xmlns:dt=""urn:schemas-microsoft-com:datatypes""><Description dt:dt=""string"">E-Prime Primary Realtime Clock</Description><StartTime><Timestamp dt:dt=""int"">0</Timestamp><DateUtc dt:dt=""string"">2012-09-05T20:18:34Z</DateUtc></StartTime><FrequencyChanges><FrequencyChange><Frequency dt:dt=""r8"">3399980000</Frequency><Timestamp dt:dt=""r8"">1251152450007</Timestamp><Current dt:dt=""r8"">0</Current><DateUtc dt:dt=""string"">2012-09-05T20:18:34Z</DateUtc></FrequencyChange></FrequencyChanges></Clock>\n",FHList1June8-1-1,60,1.0.0.1,1,2004208837,2.0.10.242,2.0.10.242,9/5/2012,9/5/2012 20:18,13:18:34,2.0.10.147,1,CV,1,2,1,ListProc,ConditionList,3,nonokmota,noknokmota,nokmotanokmota,3,1,3,big lamp,lamps,big lamp,lamp,nonokmota,noknokmota,noknokmota,nokmotanokmota,nokmota,109,1,3,5,5,TrialProc,Big,1,nonokmota,TrialList1,0,1,"-999,999",16,80972,0,5,3229,84201,109,1,3
FHList1June8,1,1,"<?xml version=""1.0""?>\n<Clock xmlns:dt=""urn:schemas-microsoft-com:datatypes""><Description dt:dt=""string"">E-Prime Primary Realtime Clock</Description><StartTime><Timestamp dt:dt=""int"">0</Timestamp><DateUtc dt:dt=""string"">2012-09-05T20:18:34Z</DateUtc></StartTime><FrequencyChanges><FrequencyChange><Frequency dt:dt=""r8"">3399980000</Frequency><Timestamp dt:dt=""r8"">1251152450007</Timestamp><Current dt:dt=""r8"">0</Current><DateUtc dt:dt=""string"">2012-09-05T20:18:34Z</DateUtc></FrequencyChange></FrequencyChanges></Clock>\n",FHList1June8-1-1,60,1.0.0.1,1,2004208837,2.0.10.242,2.0.10.242,9/5/2012,9/5/2012 20:18,13:18:34,2.0.10.147,1,CV,1,2,1,ListProc,ConditionList,4,koskosepa,kosepakosepa,kokosepa,1,5,5,big boulder,boulders,big boulder,boulder,kokosepa,koskosepa,kokosepa,kosepakosepa,kosepa,135,3,5,1,3,TrialProc,Big,5,kokosepa,TrialList1,0,5,"-999,999",17,86756,0,3,2699,89455,135,1,4
FHList1June8,1,1,"<?xml version=""1.0""?>\n<Clock xmlns:dt=""urn:schemas-microsoft-com:datatypes""><Description dt:dt=""string"">E-Prime Primary Realtime Clock</Description><StartTime><Timestamp dt:dt=""int"">0</Timestamp><DateUtc dt:dt=""string"">2012-09-05T20:18:34Z</DateUtc></StartTime><FrequencyChanges><FrequencyChange><Frequency dt:dt=""r8"">3399980000</Frequency><Timestamp dt:dt=""r8"">1251152450007</Timestamp><Current dt:dt=""r8"">0</Current><DateUtc dt:dt=""string"">2012-09-05T20:18:34Z</DateUtc></FrequencyChange></FrequencyChanges></Clock>\n",FHList1June8-1-1,60,1.0.0.1,1,2004208837,2.0.10.242,2.0.10.242,9/5/2012,9/5/2012 20:18,13:18:34,2.0.10.147,1,CV,1,2,1,ListProc,ConditionList,5,talsepatalsepa,taltalsepa,tatalsepa,3,5,3,big village,villages,villages,village,tatalsepa,taltalsepa,taltalsepa,talsepatalsepa,talsepa,35,5,3,1,1,TrialProc,Plural,1,talsepatalsepa,TrialList1,1,1,"-999,999",17,92006,0,1,2572,94578,35,1,5
FHList1June8,1,1,"<?xml version=""1.0""?>\n<Clock xmlns:dt=""urn:schemas-microsoft-com:datatypes""><Description dt:dt=""string"">E-Prime Primary Realtime Clock</Description><StartTime><Timestamp dt:dt=""int"">0</Timestamp><DateUtc dt:dt=""string"">2012-09-05T20:18:34Z</DateUtc></StartTime><FrequencyChanges><FrequencyChange><Frequency dt:dt=""r8"">3399980000</Frequency><Timestamp dt:dt=""r8"">1251152450007</Timestamp><Current dt:dt=""r8"">0</Current><DateUtc dt:dt=""string"">2012-09-05T20:18:34Z</DateUtc></FrequencyChange></FrequencyChanges></Clock>\n",FHList1June8-1-1,60,1.0.0.1,1,2004208837,2.0.10.242,2.0.10.242,9/5/2012,9/5/2012 20:18,13:18:34,2.0.10.147,1,CV,1,2,1,ListProc,ConditionList,6,vewiluvewilu,vevewilu,vewvewilu,5,3,3,big horse,horses,horses,horse,vevewilu,vewvewilu,vevewilu,vewiluvewilu,vewilu,16,5,1,3,1,TrialProc,Plural,1,vewiluvewilu,TrialList1,1,1,"-999,999",16,97122,0,1,1738,98860,16,1,6
FHList1June8,1,1,"<?xml version=""1.0""?>\n<Clock xmlns:dt=""urn:schemas-microsoft-com:datatypes""><Description dt:dt=""string"">E-Prime Primary Realtime Clock</Description><StartTime><Timestamp dt:dt=""int"">0</Timestamp><DateUtc dt:dt=""string"">2012-09-05T20:18:34Z</DateUtc></StartTime><FrequencyChanges><FrequencyChange><Frequency dt:dt=""r8"">3399980000</Frequency><Timestamp dt:dt=""r8"">1251152450007</Timestamp><Current dt:dt=""r8"">0</Current><DateUtc dt:dt=""string"">2012-09-05T20:18:34Z</DateUtc></FrequencyChange></FrequencyChanges></Clock>\n",FHList1June8-1-1,60,1.0.0.1,1,2004208837,2.0.10.242,2.0.10.242,9/5/2012,9/5/2012 20:18,13:18:34,2.0.10.147,1,CV,1,2,1,ListProc,ConditionList,7,taknulutaknulu,taktaknulu,tataknulu,3,5,3,big face,faces,big face,face,tataknulu,taktaknulu,taktaknulu,taknulutaknulu,taknulu,113,5,3,1,1,TrialProc,Big,5,tataknulu,TrialList1,0,5,"-999,999",16,101422,0,3,2790,104212,113,1,7
FHList1June8,1,1,"<?xml version=""1.0""?>\n<Clock xmlns:dt=""urn:schemas-microsoft-com:datatypes""><Description dt:dt=""string"">E-Prime Primary Realtime Clock</Description><StartTime><Timestamp dt:dt=""int"">0</Timestamp><DateUtc dt:dt=""string"">2012-09-05T20:18:34Z</DateUtc></StartTime><FrequencyChanges><FrequencyChange><Frequency dt:dt=""r8"">3399980000</Frequency><Timestamp dt:dt=""r8"">1251152450007</Timestamp><Current dt:dt=""r8"">0</Current><DateUtc dt:dt=""string"">2012-09-05T20:18:34Z</DateUtc></FrequencyChange></FrequencyChanges></Clock>\n",FHList1June8-1-1,60,1.0.0.1,1,2004208837,2.0.10.242,2.0.10.242,9/5/2012,9/5/2012 20:18,13:18:34,2.0.10.147,1,CV,1,2,1,ListProc,ConditionList,8,vetokuvetoku,vevetoku,vetvetoku,5,3,3,big fire,fires,fires,fire,vevetoku,vetvetoku,vevetoku,vetokuvetoku,vetoku,22,5,1,3,1,TrialProc,Plural,1,vetokuvetoku,TrialList1,1,1,"-999,999",16,106772,0,1,1795,108567,22,1,8
FHList1June8,1,1,"<?xml version=""1.0""?>\n<Clock xmlns:dt=""urn:schemas-microsoft-com:datatypes""><Description dt:dt=""string"">E-Prime Primary Realtime Clock</Description><StartTime><Timestamp dt:dt=""int"">0</Timestamp><DateUtc dt:dt=""string"">2012-09-05T20:18:34Z</DateUtc></StartTime><FrequencyChanges><FrequencyChange><Frequency dt:dt=""r8"">3399980000</Frequency><Timestamp dt:dt=""r8"">1251152450007</Timestamp><Current dt:dt=""r8"">0</Current><DateUtc dt:dt=""string"">2012-09-05T20:18:34Z</DateUtc></FrequencyChange></FrequencyChanges></Clock>\n",FHList1June8-1-1,60,1.0.0.1,1,2004208837,2.0.10.242,2.0.10.242,9/5/2012,9/5/2012 20:18,13:18:34,2.0.10.147,1,CV,1,2,1,ListProc,ConditionList,9,koskosopa,kokosopa,kosopakosopa,1,3,3,big nose,noses,big nose,nose,kokosopa,koskosopa,kokosopa,kosopakosopa,kosopa,110,3,1,5,5,TrialProc,Big,3,kokosopa,TrialList1,1,3,"-999,999",16,111122,0,3,3237,114359,110,1,9
FHList1June8,1,1,"<?xml version=""1.0""?>\n<Clock xmlns:dt=""urn:schemas-microsoft-com:datatypes""><Description dt:dt=""string"">E-Prime Primary Realtime Clock</Description><StartTime><Timestamp dt:dt=""int"">0</Timestamp><DateUtc dt:dt=""string"">2012-09-05T20:18:34Z</DateUtc></StartTime><FrequencyChanges><FrequencyChange><Frequency dt:dt=""r8"">3399980000</Frequency><Timestamp dt:dt=""r8"">1251152450007</Timestamp><Current dt:dt=""r8"">0</Current><DateUtc dt:dt=""string"">2012-09-05T20:18:34Z</DateUtc></FrequencyChange></FrequencyChanges></Clock>\n",FHList1June8-1-1,60,1.0.0.1,1,2004208837,2.0.10.242,2.0.10.242,9/5/2012,9/5/2012 20:18,13:18:34,2.0.10.147,1,CV,1,2,1,ListProc,ConditionList,10,rewitarewita,rewrewita,rerewita,3,5,5,big shell,shells,shells,shell,rerewita,rewrewita,rerewita,rewitarewita,rewita,29,5,3,1,1,TrialProc,Plural,1,rewitarewita,TrialList1,1,1,"-999,999",1,116890,0,1,2428,119318,29,1,10
FHList1June8,1,1,"<?xml version=""1.0""?>\n<Clock xmlns:dt=""urn:schemas-microsoft-com:datatypes""><Description dt:dt=""string"">E-Prime Primary Realtime Clock</Description><StartTime><Timestamp dt:dt=""int"">0</Timestamp><DateUtc dt:dt=""string"">2012-09-05T20:18:34Z</DateUtc></StartTime><FrequencyChanges><FrequencyChange><Frequency dt:dt=""r8"">3399980000</Frequency><Timestamp dt:dt=""r8"">1251152450007</Timestamp><Current dt:dt=""r8"">0</Current><DateUtc dt:dt=""string"">2012-09-05T20:18:34Z</DateUtc></FrequencyChange></FrequencyChanges></Clock>\n",FHList1June8-1-1,60,1.0.0.1,1,2004208837,2.0.10.242,2.0.10.242,9/5/2012,9/5/2012 20:18,13:18:34,2.0.10.147,1,CV,1,2,1,ListProc,ConditionList,11,retretoku,reretoku,retokuretoku,1,3,3,big map,maps,big map,map,reretoku,retretoku,reretoku,retokuretoku,retoku,116,3,1,5,5,TrialProc,Big,3,reretoku,TrialList1,1,3,"-999,999",16,121872,0,3,2355,124227,116,1,11
FHList1June8,1,1,"<?xml version=""1.0""?>\n<Clock xmlns:dt=""urn:schemas-microsoft-com:datatypes""><Description dt:dt=""string"">E-Prime Primary Realtime Clock</Description><StartTime><Timestamp dt:dt=""int"">0</Timestamp><DateUtc dt:dt=""string"">2012-09-05T20:18:34Z</DateUtc></StartTime><FrequencyChanges><FrequencyChange><Frequency dt:dt=""r8"">3399980000</Frequency><Timestamp dt:dt=""r8"">1251152450007</Timestamp><Current dt:dt=""r8"">0</Current><DateUtc dt:dt=""string"">2012-09-05T20:18:34Z</DateUtc></FrequencyChange></FrequencyChanges></Clock>\n",FHList1June8-1-1,60,1.0.0.1,1,2004208837,2.0.10.242,2.0.10.242,9/5/2012,9/5/2012 20:18,13:18:34,2.0.10.147,1,CV,1,2,1,ListProc,ConditionList,12,netnetota,nenetota,netotanetota,1,3,3,big bone,bones,big bone,bone,nenetota,netnetota,nenetota,netotanetota,netota,104,3,1,5,5,TrialProc,Big,3,nenetota,TrialList1,1,3,"-999,999",16,126772,0,3,3105,129877,104,1,12
FHList1June8,1,1,"<?xml version=""1.0""?>\n<Clock xmlns:dt=""urn:schemas-microsoft-com:datatypes""><Description dt:dt=""string"">E-Prime Primary Realtime Clock</Description><StartTime><Timestamp dt:dt=""int"">0</Timestamp><DateUtc dt:dt=""string"">2012-09-05T20:18:34Z</DateUtc></StartTime><FrequencyChanges><FrequencyChange><Frequency dt:dt=""r8"">3399980000</Frequency><Timestamp dt:dt=""r8"">1251152450007</Timestamp><Current dt:dt=""r8"">0</Current><DateUtc dt:dt=""string"">2012-09-05T20:18:34Z</DateUtc></FrequencyChange></FrequencyChanges></Clock>\n",FHList1June8-1-1,60,1.0.0.1,1,2004208837,2.0.10.242,2.0.10.242,9/5/2012,9/5/2012 20:18,13:18:34,2.0.10.147,1,CV,1,2,1,ListProc,ConditionList,13,kalkalnusa,kakalnusa,kalnusakalnusa,1,3,1,big ant,ants,big ant,ant,kakalnusa,kalkalnusa,kalkalnusa,kalnusakalnusa,kalnusa,80,3,1,5,5,TrialProc,Big,3,kakalnusa,TrialList1,1,3,"-999,999",16,132422,0,3,1868,134290,80,1,13
FHList1June8,1,1,"<?xml version=""1.0""?>\n<Clock xmlns:dt=""urn:schemas-microsoft-com:datatypes""><Description dt:dt=""string"">E-Prime Primary Realtime Clock</Description><StartTime><Timestamp dt:dt=""int"">0</Timestamp><DateUtc dt:dt=""string"">2012-09-05T20:18:34Z</DateUtc></StartTime><FrequencyChanges><FrequencyChange><Frequency dt:dt=""r8"">3399980000</Frequency><Timestamp dt:dt=""r8"">1251152450007</Timestamp><Current dt:dt=""r8"">0</Current><DateUtc dt:dt=""string"">2012-09-05T20:18:34Z</DateUtc></FrequencyChange></FrequencyChanges></Clock>\n",FHList1June8-1-1,60,1.0.0.1,1,2004208837,2.0.10.242,2.0.10.242,9/5/2012,9/5/2012 20:18,13:18:34,2.0.10.147,1,CV,1,2,1,ListProc,ConditionList,14,babalhisa,balhisabalhisa,balbalhisa,5,1,5,big cave,caves,caves,cave,babalhisa,balbalhisa,balbalhisa,balhisabalhisa,balhisa,72,1,5,3,3,TrialProc,Plural,3,balhisabalhisa,TrialList1,1,3,"-999,999",1,136823,0,3,1994,138817,72,1,14
FHList1June8,1,1,"<?xml version=""1.0""?>\n<Clock xmlns:dt=""urn:schemas-microsoft-com:datatypes""><Description dt:dt=""string"">E-Prime Primary Realtime Clock</Description><StartTime><Timestamp dt:dt=""int"">0</Timestamp><DateUtc dt:dt=""string"">2012-09-05T20:18:34Z</DateUtc></StartTime><FrequencyChanges><FrequencyChange><Frequency dt:dt=""r8"">3399980000</Frequency><Timestamp dt:dt=""r8"">1251152450007</Timestamp><Current dt:dt=""r8"">0</Current><DateUtc dt:dt=""string"">2012-09-05T20:18:34Z</DateUtc></FrequencyChange></FrequencyChanges></Clock>\n",FHList1June8-1-1,60,1.0.0.1,1,2004208837,2.0.10.242,2.0.10.242,9/5/2012,9/5/2012 20:18,13:18:34,2.0.10.147,1,CV,1,2,1,ListProc,ConditionList,15,nonokrutu,noknokrutu,nokrutunokrutu,3,1,3,big mouse,mstring,mstring,mouse,nonokrutu,noknokrutu,noknokrutu,nokrutunokrutu,nokrutu,43,1,3,5,5,TrialProc,Plural,5,nokrutunokrutu,TrialList1,0,5,-1,16,141372,7017,,0,0,43,1,15
FHList1June8,1,1,"<?xml version=""1.0""?>\n<Clock xmlns:dt=""urn:schemas-microsoft-com:datatypes""><Description dt:dt=""string"">E-Prime Primary Realtime Clock</Description><StartTime><Timestamp dt:dt=""int"">0</Timestamp><DateUtc dt:dt=""string"">2012-09-05T20:18:34Z</DateUtc></StartTime><FrequencyChanges><FrequencyChange><Frequency dt:dt=""r8"">3399980000</Frequency><Timestamp dt:dt=""r8"">1251152450007</Timestamp><Current dt:dt=""r8"">0</Current><DateUtc dt:dt=""string"">2012-09-05T20:18:34Z</DateUtc></FrequencyChange></FrequencyChanges></Clock>\n",FHList1June8-1-1,60,1.0.0.1,1,2004208837,2.0.10.242,2.0.10.242,9/5/2012,9/5/2012 20:18,13:18:34,2.0.10.147,1,CV,1,2,1,ListProc,ConditionList,16,balmupabalmupa,balbalmupa,babalmupa,3,5,3,big bridge,bridges,big bridge,bridge,babalmupa,balbalmupa,balbalmupa,balmupabalmupa,balmupa,119,5,3,1,1,TrialProc,Big,5,babalmupa,TrialList1,0,5,"-999,999",16,150922,0,3,3642,154564,119,1,16
FHList1June8,1,1,"<?xml version=""1.0""?>\n<Clock xmlns:dt=""urn:schemas-microsoft-com:datatypes""><Description dt:dt=""string"">E-Prime Primary Realtime Clock</Description><StartTime><Timestamp dt:dt=""int"">0</Timestamp><DateUtc dt:dt=""string"">2012-09-05T20:18:34Z</DateUtc></StartTime><FrequencyChanges><FrequencyChange><Frequency dt:dt=""r8"">3399980000</Frequency><Timestamp dt:dt=""r8"">1251152450007</Timestamp><Current dt:dt=""r8"">0</Current><DateUtc dt:dt=""string"">2012-09-05T20:18:34Z</DateUtc></FrequencyChange></FrequencyChanges></Clock>\n",FHList1June8-1-1,60,1.0.0.1,1,2004208837,2.0.10.242,2.0.10.242,9/5/2012,9/5/2012 20:18,13:18:34,2.0.10.147,1,CV,1,2,1,ListProc,ConditionList,17,kutkutrulu,kukutrulu,kutrulukutrulu,1,3,1,big bug,bugs,big bug,bug,kukutrulu,kutkutrulu,kutkutrulu,kutrulukutrulu,kutrulu,92,3,1,5,5,TrialProc,Big,3,kukutrulu,TrialList1,1,3,"-999,999",16,157122,0,3,2791,159913,92,1,17
FHList1June8,1,1,"<?xml version=""1.0""?>\n<Clock xmlns:dt=""urn:schemas-microsoft-com:datatypes""><Description dt:dt=""string"">E-Prime Primary Realtime Clock</Description><StartTime><Timestamp dt:dt=""int"">0</Timestamp><DateUtc dt:dt=""string"">2012-09-05T20:18:34Z</DateUtc></StartTime><FrequencyChanges><FrequencyChange><Frequency dt:dt=""r8"">3399980000</Frequency><Timestamp dt:dt=""r8"">1251152450007</Timestamp><Current dt:dt=""r8"">0</Current><DateUtc dt:dt=""string"">2012-09-05T20:18:34Z</DateUtc></FrequencyChange></FrequencyChanges></Clock>\n",FHList1June8-1-1,60,1.0.0.1,1,2004208837,2.0.10.242,2.0.10.242,9/5/2012,9/5/2012 20:18,13:18:34,2.0.10.147,1,CV,1,2,1,ListProc,ConditionList,18,talsatatalsata,taltalsata,tatalsata,3,5,3,big seed,seeds,seeds,seed,tatalsata,taltalsata,taltalsata,talsatatalsata,talsata,65,5,3,1,1,TrialProc,Plural,1,talsatatalsata,TrialList1,1,1,"-999,999",17,162456,0,1,2968,165424,65,1,18
FHList1June8,1,1,"<?xml version=""1.0""?>\n<Clock xmlns:dt=""urn:schemas-microsoft-com:datatypes""><Description dt:dt=""string"">E-Prime Primary Realtime Clock</Description><StartTime><Timestamp dt:dt=""int"">0</Timestamp><DateUtc dt:dt=""string"">2012-09-05T20:18:34Z</DateUtc></StartTime><FrequencyChanges><FrequencyChange><Frequency dt:dt=""r8"">3399980000</Frequency><Timestamp dt:dt=""r8"">1251152450007</Timestamp><Current dt:dt=""r8"">0</Current><DateUtc dt:dt=""string"">2012-09-05T20:18:34Z</DateUtc></FrequencyChange></FrequencyChanges></Clock>\n",FHList1June8-1-1,60,1.0.0.1,1,2004208837,2.0.10.242,2.0.10.242,9/5/2012,9/5/2012 20:18,13:18:34,2.0.10.147,1,CV,1,2,1,ListProc,ConditionList,19,pubisapubisa,pubpubisa,pupubisa,3,5,5,big cart,carts,big cart,cart,pupubisa,pubpubisa,pupubisa,pubisapubisa,pubisa,83,5,3,1,1,TrialProc,Big,5,pupubisa,TrialList1,0,5,"-999,999",16,167972,0,3,2156,170128,83,1,19
FHList1June8,1,1,"<?xml version=""1.0""?>\n<Clock xmlns:dt=""urn:schemas-microsoft-com:datatypes""><Description dt:dt=""string"">E-Prime Primary Realtime Clock</Description><StartTime><Timestamp dt:dt=""int"">0</Timestamp><DateUtc dt:dt=""string"">2012-09-05T20:18:34Z</DateUtc></StartTime><FrequencyChanges><FrequencyChange><Frequency dt:dt=""r8"">3399980000</Frequency><Timestamp dt:dt=""r8"">1251152450007</Timestamp><Current dt:dt=""r8"">0</Current><DateUtc dt:dt=""string"">2012-09-05T20:18:34Z</DateUtc></FrequencyChange></FrequencyChanges></Clock>\n",FHList1June8-1-1,60,1.0.0.1,1,2004208837,2.0.10.242,2.0.10.242,9/5/2012,9/5/2012 20:18,13:18:34,2.0.10.147,1,CV,1,2,1,ListProc,ConditionList,20,hihimuku,himhimuku,himukuhimuku,3,1,1,big book,books,books,book,hihimuku,himhimuku,hihimuku,himukuhimuku,himuku,31,1,3,5,5,TrialProc,Plural,5,himukuhimuku,TrialList1,1,5,"-999,999",16,172672,0,5,3963,176635,31,1,20
FHList1June8,1,1,"<?xml version=""1.0""?>\n<Clock xmlns:dt=""urn:schemas-microsoft-com:datatypes""><Description dt:dt=""string"">E-Prime Primary Realtime Clock</Description><StartTime><Timestamp dt:dt=""int"">0</Timestamp><DateUtc dt:dt=""string"">2012-09-05T20:18:34Z</DateUtc></StartTime><FrequencyChanges><FrequencyChange><Frequency dt:dt=""r8"">3399980000</Frequency><Timestamp dt:dt=""r8"">1251152450007</Timestamp><Current dt:dt=""r8"">0</Current><DateUtc dt:dt=""string"">2012-09-05T20:18:34Z</DateUtc></FrequencyChange></FrequencyChanges></Clock>\n",FHList1June8-1-1,60,1.0.0.1,1,2004208837,2.0.10.242,2.0.10.242,9/5/2012,9/5/2012 20:18,13:18:34,2.0.10.147,1,CV,1,2,1,ListProc,ConditionList,21,kumkumtosa,kukumtosa,kumtosakumtosa,1,3,1,big page,pages,big page,page,kukumtosa,kumkumtosa,kumkumtosa,kumtosakumtosa,kumtosa,146,3,1,5,5,TrialProc,Big,3,kukumtosa,TrialList1,1,3,"-999,999",1,179173,0,3,4210,183383,146,1,21
FHList1June8,1,1,"<?xml version=""1.0""?>\n<Clock xmlns:dt=""urn:schemas-microsoft-com:datatypes""><Description dt:dt=""string"">E-Prime Primary Realtime Clock</Description><StartTime><Timestamp dt:dt=""int"">0</Timestamp><DateUtc dt:dt=""string"">2012-09-05T20:18:34Z</DateUtc></StartTime><FrequencyChanges><FrequencyChange><Frequency dt:dt=""r8"">3399980000</Frequency><Timestamp dt:dt=""r8"">1251152450007</Timestamp><Current dt:dt=""r8"">0</Current><DateUtc dt:dt=""string"">2012-09-05T20:18:34Z</DateUtc></FrequencyChange></FrequencyChanges></Clock>\n",FHList1June8-1-1,60,1.0.0.1,1,2004208837,2.0.10.242,2.0.10.242,9/5/2012,9/5/2012 20:18,13:18:34,2.0.10.147,1,CV,1,2,1,ListProc,ConditionList,22,pukpukolu,pukolupukolu,pupukolu,1,5,5,big ball,balls,big ball,ball,pupukolu,pukpukolu,pupukolu,pukolupukolu,pukolu,81,3,5,1,3,TrialProc,Big,5,pupukolu,TrialList1,1,5,"-999,999",1,185923,0,5,3301,189224,81,1,22
FHList1June8,1,1,"<?xml version=""1.0""?>\n<Clock xmlns:dt=""urn:schemas-microsoft-com:datatypes""><Description dt:dt=""string"">E-Prime Primary Realtime Clock</Description><StartTime><Timestamp dt:dt=""int"">0</Timestamp><DateUtc dt:dt=""string"">2012-09-05T20:18:34Z</DateUtc></StartTime><FrequencyChanges><FrequencyChange><Frequency dt:dt=""r8"">3399980000</Frequency><Timestamp dt:dt=""r8"">1251152450007</Timestamp><Current dt:dt=""r8"">0</Current><DateUtc dt:dt=""string"">2012-09-05T20:18:34Z</DateUtc></FrequencyChange></FrequencyChanges></Clock>\n",FHList1June8-1-1,60,1.0.0.1,1,2004208837,2.0.10.242,2.0.10.242,9/5/2012,9/5/2012 20:18,13:18:34,2.0.10.147,1,CV,1,2,1,ListProc,ConditionList,23,kakasota,kasotakasota,kaskasota,5,1,1,big coat,coats,big coat,coat,kakasota,kaskasota,kakasota,kasotakasota,kasota,102,1,5,3,3,TrialProc,Big,1,kakasota,TrialList1,0,1,"-999,999",16,191772,0,5,2491,194263,102,1,23
FHList1June8,1,1,"<?xml version=""1.0""?>\n<Clock xmlns:dt=""urn:schemas-microsoft-com:datatypes""><Description dt:dt=""string"">E-Prime Primary Realtime Clock</Description><StartTime><Timestamp dt:dt=""int"">0</Timestamp><DateUtc dt:dt=""string"">2012-09-05T20:18:34Z</DateUtc></StartTime><FrequencyChanges><FrequencyChange><Frequency dt:dt=""r8"">3399980000</Frequency><Timestamp dt:dt=""r8"">1251152450007</Timestamp><Current dt:dt=""r8"">0</Current><DateUtc dt:dt=""string"">2012-09-05T20:18:34Z</DateUtc></FrequencyChange></FrequencyChanges></Clock>\n",FHList1June8-1-1,60,1.0.0.1,1,2004208837,2.0.10.242,2.0.10.242,9/5/2012,9/5/2012 20:18,13:18:34,2.0.10.147,1,CV,1,2,1,ListProc,ConditionList,24,womwomhatu,womhatuwomhatu,wowomhatu,1,5,1,big axe,axes,axes,axe,wowomhatu,womwomhatu,womwomhatu,womhatuwomhatu,womhatu,39,3,5,1,3,TrialProc,Plural,3,womhatuwomhatu,TrialList1,1,3,"-999,999",16,196822,0,3,1254,198076,39,1,24
FHList1June8,1,1,"<?xml version=""1.0""?>\n<Clock xmlns:dt=""urn:schemas-microsoft-com:datatypes""><Description dt:dt=""string"">E-Prime Primary Realtime Clock</Description><StartTime><Timestamp dt:dt=""int"">0</Timestamp><DateUtc dt:dt=""string"">2012-09-05T20:18:34Z</DateUtc></StartTime><FrequencyChanges><FrequencyChange><Frequency dt:dt=""r8"">3399980000</Frequency><Timestamp dt:dt=""r8"">1251152450007</Timestamp><Current dt:dt=""r8"">0</Current><DateUtc dt:dt=""string"">2012-09-05T20:18:34Z</DateUtc></FrequencyChange></FrequencyChanges></Clock>\n",FHList1June8-1-1,60,1.0.0.1,1,2004208837,2.0.10.242,2.0.10.242,9/5/2012,9/5/2012 20:18,13:18:34,2.0.10.147,1,CV,1,2,1,ListProc,ConditionList,25,hihhihalu,hihaluhihalu,hihihalu,1,5,5,big hand,hands,hands,hand,hihihalu,hihhihalu,hihihalu,hihaluhihalu,hihalu,27,3,5,1,3,TrialProc,Plural,3,hihaluhihalu,TrialList1,1,3,"-999,999",16,200622,0,3,1690,202312,27,1,25
FHList1June8,1,1,"<?xml version=""1.0""?>\n<Clock xmlns:dt=""urn:schemas-microsoft-com:datatypes""><Description dt:dt=""string"">E-Prime Primary Realtime Clock</Description><StartTime><Timestamp dt:dt=""int"">0</Timestamp><DateUtc dt:dt=""string"">2012-09-05T20:18:34Z</DateUtc></StartTime><FrequencyChanges><FrequencyChange><Frequency dt:dt=""r8"">3399980000</Frequency><Timestamp dt:dt=""r8"">1251152450007</Timestamp><Current dt:dt=""r8"">0</Current><DateUtc dt:dt=""string"">2012-09-05T20:18:34Z</DateUtc></FrequencyChange></FrequencyChanges></Clock>\n",FHList1June8-1-1,60,1.0.0.1,1,2004208837,2.0.10.242,2.0.10.242,9/5/2012,9/5/2012 20:18,13:18:34,2.0.10.147,1,CV,1,2,1,ListProc,ConditionList,26,noknoktopa,noktopanoktopa,nonoktopa,1,5,1,big boat,boats,boats,boat,nonoktopa,noknoktopa,noknoktopa,noktopanoktopa,noktopa,15,3,5,1,3,TrialProc,Plural,3,noktopanoktopa,TrialList1,1,3,"-999,999",1,204840,0,3,1079,205919,15,1,26
FHList1June8,1,1,"<?xml version=""1.0""?>\n<Clock xmlns:dt=""urn:schemas-microsoft-com:datatypes""><Description dt:dt=""string"">E-Prime Primary Realtime Clock</Description><StartTime><Timestamp dt:dt=""int"">0</Timestamp><DateUtc dt:dt=""string"">2012-09-05T20:18:34Z</DateUtc></StartTime><FrequencyChanges><FrequencyChange><Frequency dt:dt=""r8"">3399980000</Frequency><Timestamp dt:dt=""r8"">1251152450007</Timestamp><Current dt:dt=""r8"">0</Current><DateUtc dt:dt=""string"">2012-09-05T20:18:34Z</DateUtc></FrequencyChange></FrequencyChanges></Clock>\n",FHList1June8-1-1,60,1.0.0.1,1,2004208837,2.0.10.242,2.0.10.242,9/5/2012,9/5/2012 20:18,13:18:34,2.0.10.147,1,CV,1,2,1,ListProc,ConditionList,27,rekrekilu,rerekilu,rekilurekilu,1,3,3,big hole,holes,holes,hole,rerekilu,rekrekilu,rerekilu,rekilurekilu,rekilu,62,3,1,5,5,TrialProc,Plural,5,rekilurekilu,TrialList1,1,5,"-999,999",16,208472,0,5,2007,210479,62,1,27
FHList1June8,1,1,"<?xml version=""1.0""?>\n<Clock xmlns:dt=""urn:schemas-microsoft-com:datatypes""><Description dt:dt=""string"">E-Prime Primary Realtime Clock</Description><StartTime><Timestamp dt:dt=""int"">0</Timestamp><DateUtc dt:dt=""string"">2012-09-05T20:18:34Z</DateUtc></StartTime><FrequencyChanges><FrequencyChange><Frequency dt:dt=""r8"">3399980000</Frequency><Timestamp dt:dt=""r8"">1251152450007</Timestamp><Current dt:dt=""r8"">0</Current><DateUtc dt:dt=""string"">2012-09-05T20:18:34Z</DateUtc></FrequencyChange></FrequencyChanges></Clock>\n",FHList1June8-1-1,60,1.0.0.1,1,2004208837,2.0.10.242,2.0.10.242,9/5/2012,9/5/2012 20:18,13:18:34,2.0.10.147,1,CV,1,2,1,ListProc,ConditionList,28,bobolmuka,bolmukabolmuka,bolbolmuka,5,1,5,big berry,berries,big berry,berry,bobolmuka,bolbolmuka,bolbolmuka,bolmukabolmuka,bolmuka,84,1,5,3,3,TrialProc,Big,1,bobolmuka,TrialList1,0,1,"-999,999",2,213024,0,5,1975,214999,84,1,28
FHList1June8,1,1,"<?xml version=""1.0""?>\n<Clock xmlns:dt=""urn:schemas-microsoft-com:datatypes""><Description dt:dt=""string"">E-Prime Primary Realtime Clock</Description><StartTime><Timestamp dt:dt=""int"">0</Timestamp><DateUtc dt:dt=""string"">2012-09-05T20:18:34Z</DateUtc></StartTime><FrequencyChanges><FrequencyChange><Frequency dt:dt=""r8"">3399980000</Frequency><Timestamp dt:dt=""r8"">1251152450007</Timestamp><Current dt:dt=""r8"">0</Current><DateUtc dt:dt=""string"">2012-09-05T20:18:34Z</DateUtc></FrequencyChange></FrequencyChanges></Clock>\n",FHList1June8-1-1,60,1.0.0.1,1,2004208837,2.0.10.242,2.0.10.242,9/5/2012,9/5/2012 20:18,13:18:34,2.0.10.147,1,CV,1,2,1,ListProc,ConditionList,29,talrutatalruta,taltalruta,tatalruta,3,5,3,big helmet,helmets,big helmet,helmet,tatalruta,taltalruta,taltalruta,talrutatalruta,talruta,101,5,3,1,1,TrialProc,Big,5,tatalruta,TrialList1,0,5,"-999,999",15,217539,0,3,2110,219649,101,1,29
FHList1June8,1,1,"<?xml version=""1.0""?>\n<Clock xmlns:dt=""urn:schemas-microsoft-com:datatypes""><Description dt:dt=""string"">E-Prime Primary Realtime Clock</Description><StartTime><Timestamp dt:dt=""int"">0</Timestamp><DateUtc dt:dt=""string"">2012-09-05T20:18:34Z</DateUtc></StartTime><FrequencyChanges><FrequencyChange><Frequency dt:dt=""r8"">3399980000</Frequency><Timestamp dt:dt=""r8"">1251152450007</Timestamp><Current dt:dt=""r8"">0</Current><DateUtc dt:dt=""string"">2012-09-05T20:18:34Z</DateUtc></FrequencyChange></FrequencyChanges></Clock>\n",FHList1June8-1-1,60,1.0.0.1,1,2004208837,2.0.10.242,2.0.10.242,9/5/2012,9/5/2012 20:18,13:18:34,2.0.10.147,1,CV,1,2,1,ListProc,ConditionList,30,hihitmolu,hithitmolu,hitmoluhitmolu,3,1,3,big bird,birds,birds,bird,hihitmolu,hithitmolu,hithitmolu,hitmoluhitmolu,hitmolu,19,1,3,5,5,TrialProc,Plural,5,hitmoluhitmolu,TrialList1,1,5,"-999,999",17,222206,0,5,1447,223653,19,1,30
FHList1June8,1,1,"<?xml version=""1.0""?>\n<Clock xmlns:dt=""urn:schemas-microsoft-com:datatypes""><Description dt:dt=""string"">E-Prime Primary Realtime Clock</Description><StartTime><Timestamp dt:dt=""int"">0</Timestamp><DateUtc dt:dt=""string"">2012-09-05T20:18:34Z</DateUtc></StartTime><FrequencyChanges><FrequencyChange><Frequency dt:dt=""r8"">3399980000</Frequency><Timestamp dt:dt=""r8"">1251152450007</Timestamp><Current dt:dt=""r8"">0</Current><DateUtc dt:dt=""string"">2012-09-05T20:18:34Z</DateUtc></FrequencyChange></FrequencyChanges></Clock>\n",FHList1June8-1-1,60,1.0.0.1,1,2004208837,2.0.10.242,2.0.10.242,9/5/2012,9/5/2012 20:18,13:18:34,2.0.10.147,1,CV,1,2,1,ListProc,ConditionList,31,kalwitakalwita,kalkalwita,kakalwita,3,5,3,big necklace,necklaces,big necklace,necklace,kakalwita,kalkalwita,kalkalwita,kalwitakalwita,kalwita,125,5,3,1,1,TrialProc,Big,5,kakalwita,TrialList1,0,5,-1,1,226190,7016,,0,0,125,1,31
FHList1June8,1,1,"<?xml version=""1.0""?>\n<Clock xmlns:dt=""urn:schemas-microsoft-com:datatypes""><Description dt:dt=""string"">E-Prime Primary Realtime Clock</Description><StartTime><Timestamp dt:dt=""int"">0</Timestamp><DateUtc dt:dt=""string"">2012-09-05T20:18:34Z</DateUtc></StartTime><FrequencyChanges><FrequencyChange><Frequency dt:dt=""r8"">3399980000</Frequency><Timestamp dt:dt=""r8"">1251152450007</Timestamp><Current dt:dt=""r8"">0</Current><DateUtc dt:dt=""string"">2012-09-05T20:18:34Z</DateUtc></FrequencyChange></FrequencyChanges></Clock>\n",FHList1June8-1-1,60,1.0.0.1,1,2004208837,2.0.10.242,2.0.10.242,9/5/2012,9/5/2012 20:18,13:18:34,2.0.10.147,1,CV,1,2,1,ListProc,ConditionList,32,kakalnulu,kalkalnulu,kalnulukalnulu,3,1,3,big blade,blades,big blade,blade,kakalnulu,kalkalnulu,kalkalnulu,kalnulukalnulu,kalnulu,103,1,3,5,5,TrialProc,Big,1,kakalnulu,TrialList1,1,1,"-999,999",1,235723,0,1,2615,238338,103,1,32
FHList1June8,1,1,"<?xml version=""1.0""?>\n<Clock xmlns:dt=""urn:schemas-microsoft-com:datatypes""><Description dt:dt=""string"">E-Prime Primary Realtime Clock</Description><StartTime><Timestamp dt:dt=""int"">0</Timestamp><DateUtc dt:dt=""string"">2012-09-05T20:18:34Z</DateUtc></StartTime><FrequencyChanges><FrequencyChange><Frequency dt:dt=""r8"">3399980000</Frequency><Timestamp dt:dt=""r8"">1251152450007</Timestamp><Current dt:dt=""r8"">0</Current><DateUtc dt:dt=""string"">2012-09-05T20:18:34Z</DateUtc></FrequencyChange></FrequencyChanges></Clock>\n",FHList1June8-1-1,60,1.0.0.1,1,2004208837,2.0.10.242,2.0.10.242,9/5/2012,9/5/2012 20:18,13:18:34,2.0.10.147,1,CV,1,2,1,ListProc,ConditionList,33,hitnukuhitnuku,hihitnuku,hithitnuku,5,3,5,big baby,babies,big baby,baby,hihitnuku,hithitnuku,hithitnuku,hitnukuhitnuku,hitnuku,136,5,1,3,1,TrialProc,Big,3,hihitnuku,TrialList1,1,3,"-999,999",1,240873,0,3,1782,242655,136,1,33
FHList1June8,1,1,"<?xml version=""1.0""?>\n<Clock xmlns:dt=""urn:schemas-microsoft-com:datatypes""><Description dt:dt=""string"">E-Prime Primary Realtime Clock</Description><StartTime><Timestamp dt:dt=""int"">0</Timestamp><DateUtc dt:dt=""string"">2012-09-05T20:18:34Z</DateUtc></StartTime><FrequencyChanges><FrequencyChange><Frequency dt:dt=""r8"">3399980000</Frequency><Timestamp dt:dt=""r8"">1251152450007</Timestamp><Current dt:dt=""r8"">0</Current><DateUtc dt:dt=""string"">2012-09-05T20:18:34Z</DateUtc></FrequencyChange></FrequencyChanges></Clock>\n",FHList1June8-1-1,60,1.0.0.1,1,2004208837,2.0.10.242,2.0.10.242,9/5/2012,9/5/2012 20:18,13:18:34,2.0.10.147,1,CV,1,2,1,ListProc,ConditionList,34,kumrulukumrulu,kukumrulu,kumkumrulu,5,3,5,big nut,nuts,big nut,nut,kukumrulu,kumkumrulu,kumkumrulu,kumrulukumrulu,kumrulu,130,5,1,3,1,TrialProc,Big,3,kukumrulu,TrialList1,1,3,"-999,999",1,245190,0,3,1975,247165,130,1,34
FHList1June8,1,1,"<?xml version=""1.0""?>\n<Clock xmlns:dt=""urn:schemas-microsoft-com:datatypes""><Description dt:dt=""string"">E-Prime Primary Realtime Clock</Description><StartTime><Timestamp dt:dt=""int"">0</Timestamp><DateUtc dt:dt=""string"">2012-09-05T20:18:34Z</DateUtc></StartTime><FrequencyChanges><FrequencyChange><Frequency dt:dt=""r8"">3399980000</Frequency><Timestamp dt:dt=""r8"">1251152450007</Timestamp><Current dt:dt=""r8"">0</Current><DateUtc dt:dt=""string"">2012-09-05T20:18:34Z</DateUtc></FrequencyChange></FrequencyChanges></Clock>\n",FHList1June8-1-1,60,1.0.0.1,1,2004208837,2.0.10.242,2.0.10.242,9/5/2012,9/5/2012 20:18,13:18:34,2.0.10.147,1,CV,1,2,1,ListProc,ConditionList,35,nonokvulu,noknokvulu,nokvulunokvulu,3,1,3,big tooth,teeth,teeth,tooth,nonokvulu,noknokvulu,noknokvulu,nokvulunokvulu,nokvulu,61,1,3,5,5,TrialProc,Plural,5,nokvulunokvulu,TrialList1,1,5,"-999,999",2,249691,0,5,1723,251414,61,1,35
FHList1June8,1,1,"<?xml version=""1.0""?>\n<Clock xmlns:dt=""urn:schemas-microsoft-com:datatypes""><Description dt:dt=""string"">E-Prime Primary Realtime Clock</Description><StartTime><Timestamp dt:dt=""int"">0</Timestamp><DateUtc dt:dt=""string"">2012-09-05T20:18:34Z</DateUtc></StartTime><FrequencyChanges><FrequencyChange><Frequency dt:dt=""r8"">3399980000</Frequency><Timestamp dt:dt=""r8"">1251152450007</Timestamp><Current dt:dt=""r8"">0</Current><DateUtc dt:dt=""string"">2012-09-05T20:18:34Z</DateUtc></FrequencyChange></FrequencyChanges></Clock>\n",FHList1June8-1-1,60,1.0.0.1,1,2004208837,2.0.10.242,2.0.10.242,9/5/2012,9/5/2012 20:18,13:18:34,2.0.10.147,1,CV,1,2,1,ListProc,ConditionList,36,sikotasikota,siksikota,sisikota,3,5,5,big lizard,lizards,big lizard,lizard,sisikota,siksikota,sisikota,sikotasikota,sikota,95,5,3,1,1,TrialProc,Big,5,sisikota,TrialList1,0,5,"-999,999",16,253972,0,3,1982,255954,95,1,36
FHList1June8,1,1,"<?xml version=""1.0""?>\n<Clock xmlns:dt=""urn:schemas-microsoft-com:datatypes""><Description dt:dt=""string"">E-Prime Primary Realtime Clock</Description><StartTime><Timestamp dt:dt=""int"">0</Timestamp><DateUtc dt:dt=""string"">2012-09-05T20:18:34Z</DateUtc></StartTime><FrequencyChanges><FrequencyChange><Frequency dt:dt=""r8"">3399980000</Frequency><Timestamp dt:dt=""r8"">1251152450007</Timestamp><Current dt:dt=""r8"">0</Current><DateUtc dt:dt=""string"">2012-09-05T20:18:34Z</DateUtc></FrequencyChange></FrequencyChanges></Clock>\n",FHList1June8-1-1,60,1.0.0.1,1,2004208837,2.0.10.242,2.0.10.242,9/5/2012,9/5/2012 20:18,13:18:34,2.0.10.147,1,CV,1,2,1,ListProc,ConditionList,37,bolsopabolsopa,bobolsopa,bolbolsopa,5,3,5,big eye,eyes,big eye,eye,bobolsopa,bolbolsopa,bolbolsopa,bolsopabolsopa,bolsopa,88,5,1,3,1,TrialProc,Big,3,bobolsopa,TrialList1,1,3,"-999,999",17,258506,0,3,2448,260954,88,1,37
FHList1June8,1,1,"<?xml version=""1.0""?>\n<Clock xmlns:dt=""urn:schemas-microsoft-com:datatypes""><Description dt:dt=""string"">E-Prime Primary Realtime Clock</Description><StartTime><Timestamp dt:dt=""int"">0</Timestamp><DateUtc dt:dt=""string"">2012-09-05T20:18:34Z</DateUtc></StartTime><FrequencyChanges><FrequencyChange><Frequency dt:dt=""r8"">3399980000</Frequency><Timestamp dt:dt=""r8"">1251152450007</Timestamp><Current dt:dt=""r8"">0</Current><DateUtc dt:dt=""string"">2012-09-05T20:18:34Z</DateUtc></FrequencyChange></FrequencyChanges></Clock>\n",FHList1June8-1-1,60,1.0.0.1,1,2004208837,2.0.10.242,2.0.10.242,9/5/2012,9/5/2012 20:18,13:18:34,2.0.10.147,1,CV,1,2,1,ListProc,ConditionList,38,neknekola,nenekola,nekolanekola,1,3,3,big ball,balls,balls,ball,nenekola,neknekola,nenekola,nekolanekola,nekola,2,3,1,5,5,TrialProc,Plural,5,nekolanekola,TrialList1,1,5,"-999,999",1,263490,0,5,1181,264671,2,1,38
FHList1June8,1,1,"<?xml version=""1.0""?>\n<Clock xmlns:dt=""urn:schemas-microsoft-com:datatypes""><Description dt:dt=""string"">E-Prime Primary Realtime Clock</Description><StartTime><Timestamp dt:dt=""int"">0</Timestamp><DateUtc dt:dt=""string"">2012-09-05T20:18:34Z</DateUtc></StartTime><FrequencyChanges><FrequencyChange><Frequency dt:dt=""r8"">3399980000</Frequency><Timestamp dt:dt=""r8"">1251152450007</Timestamp><Current dt:dt=""r8"">0</Current><DateUtc dt:dt=""string"">2012-09-05T20:18:34Z</DateUtc></FrequencyChange></FrequencyChanges></Clock>\n",FHList1June8-1-1,60,1.0.0.1,1,2004208837,2.0.10.242,2.0.10.242,9/5/2012,9/5/2012 20:18,13:18:34,2.0.10.147,1,CV,1,2,1,ListProc,ConditionList,39,nevnevuta,nenevuta,nevutanevuta,1,3,3,big door,doors,doors,door,nenevuta,nevnevuta,nenevuta,nevutanevuta,nevuta,50,3,1,5,5,TrialProc,Plural,5,nevutanevuta,TrialList1,1,5,"-999,999",16,267222,0,5,1097,268319,50,1,39
FHList1June8,1,1,"<?xml version=""1.0""?>\n<Clock xmlns:dt=""urn:schemas-microsoft-com:datatypes""><Description dt:dt=""string"">E-Prime Primary Realtime Clock</Description><StartTime><Timestamp dt:dt=""int"">0</Timestamp><DateUtc dt:dt=""string"">2012-09-05T20:18:34Z</DateUtc></StartTime><FrequencyChanges><FrequencyChange><Frequency dt:dt=""r8"">3399980000</Frequency><Timestamp dt:dt=""r8"">1251152450007</Timestamp><Current dt:dt=""r8"">0</Current><DateUtc dt:dt=""string"">2012-09-05T20:18:34Z</DateUtc></FrequencyChange></FrequencyChanges></Clock>\n",FHList1June8-1-1,60,1.0.0.1,1,2004208837,2.0.10.242,2.0.10.242,9/5/2012,9/5/2012 20:18,13:18:34,2.0.10.147,1,CV,1,2,1,ListProc,ConditionList,40,noknokbilu,nonokbilu,nokbilunokbilu,1,3,1,big beard,beards,big beard,beard,nonokbilu,noknokbilu,noknokbilu,nokbilunokbilu,nokbilu,134,3,1,5,5,TrialProc,Big,3,nonokbilu,TrialList1,1,3,"-999,999",16,270872,0,3,1951,272823,134,1,40
FHList1June8,1,1,"<?xml version=""1.0""?>\n<Clock xmlns:dt=""urn:schemas-microsoft-com:datatypes""><Description dt:dt=""string"">E-Prime Primary Realtime Clock</Description><StartTime><Timestamp dt:dt=""int"">0</Timestamp><DateUtc dt:dt=""string"">2012-09-05T20:18:34Z</DateUtc></StartTime><FrequencyChanges><FrequencyChange><Frequency dt:dt=""r8"">3399980000</Frequency><Timestamp dt:dt=""r8"">1251152450007</Timestamp><Current dt:dt=""r8"">0</Current><DateUtc dt:dt=""string"">2012-09-05T20:18:34Z</DateUtc></FrequencyChange></FrequencyChanges></Clock>\n",FHList1June8-1-1,60,1.0.0.1,1,2004208837,2.0.10.242,2.0.10.242,9/5/2012,9/5/2012 20:18,13:18:34,2.0.10.147,1,CV,1,2,1,ListProc,ConditionList,41,puhpuhapa,pupuhapa,puhapapuhapa,1,3,3,big wall,walls,big wall,wall,pupuhapa,puhpuhapa,pupuhapa,puhapapuhapa,puhapa,122,3,1,5,5,TrialProc,Big,3,pupuhapa,TrialList1,1,3,"-999,999",16,275372,0,3,1642,277014,122,1,41
FHList1June8,1,1,"<?xml version=""1.0""?>\n<Clock xmlns:dt=""urn:schemas-microsoft-com:datatypes""><Description dt:dt=""string"">E-Prime Primary Realtime Clock</Description><StartTime><Timestamp dt:dt=""int"">0</Timestamp><DateUtc dt:dt=""string"">2012-09-05T20:18:34Z</DateUtc></StartTime><FrequencyChanges><FrequencyChange><Frequency dt:dt=""r8"">3399980000</Frequency><Timestamp dt:dt=""r8"">1251152450007</Timestamp><Current dt:dt=""r8"">0</Current><DateUtc dt:dt=""string"">2012-09-05T20:18:34Z</DateUtc></FrequencyChange></FrequencyChanges></Clock>\n",FHList1June8-1-1,60,1.0.0.1,1,2004208837,2.0.10.242,2.0.10.242,9/5/2012,9/5/2012 20:18,13:18:34,2.0.10.147,1,CV,1,2,1,ListProc,ConditionList,42,jatopajatopa,jajatopa,jatjatopa,5,3,3,big wire,wires,big wire,wire,jajatopa,jatjatopa,jajatopa,jatopajatopa,jatopa,124,5,1,3,1,TrialProc,Big,3,jajatopa,TrialList1,1,3,"-999,999",15,279539,0,3,2862,282401,124,1,42
FHList1June8,1,1,"<?xml version=""1.0""?>\n<Clock xmlns:dt=""urn:schemas-microsoft-com:datatypes""><Description dt:dt=""string"">E-Prime Primary Realtime Clock</Description><StartTime><Timestamp dt:dt=""int"">0</Timestamp><DateUtc dt:dt=""string"">2012-09-05T20:18:34Z</DateUtc></StartTime><FrequencyChanges><FrequencyChange><Frequency dt:dt=""r8"">3399980000</Frequency><Timestamp dt:dt=""r8"">1251152450007</Timestamp><Current dt:dt=""r8"">0</Current><DateUtc dt:dt=""string"">2012-09-05T20:18:34Z</DateUtc></FrequencyChange></FrequencyChanges></Clock>\n",FHList1June8-1-1,60,1.0.0.1,1,2004208837,2.0.10.242,2.0.10.242,9/5/2012,9/5/2012 20:18,13:18:34,2.0.10.147,1,CV,1,2,1,ListProc,ConditionList,43,kumkumbita,kumbitakumbita,kukumbita,1,5,1,big bowl,bowls,big bowl,bowl,kukumbita,kumkumbita,kumkumbita,kumbitakumbita,kumbita,123,3,5,1,3,TrialProc,Big,5,kukumbita,TrialList1,1,5,"-999,999",17,284956,0,5,2468,287424,123,1,43
FHList1June8,1,1,"<?xml version=""1.0""?>\n<Clock xmlns:dt=""urn:schemas-microsoft-com:datatypes""><Description dt:dt=""string"">E-Prime Primary Realtime Clock</Description><StartTime><Timestamp dt:dt=""int"">0</Timestamp><DateUtc dt:dt=""string"">2012-09-05T20:18:34Z</DateUtc></StartTime><FrequencyChanges><FrequencyChange><Frequency dt:dt=""r8"">3399980000</Frequency><Timestamp dt:dt=""r8"">1251152450007</Timestamp><Current dt:dt=""r8"">0</Current><DateUtc dt:dt=""string"">2012-09-05T20:18:34Z</DateUtc></FrequencyChange></FrequencyChanges></Clock>\n",FHList1June8-1-1,60,1.0.0.1,1,2004208837,2.0.10.242,2.0.10.242,9/5/2012,9/5/2012 20:18,13:18:34,2.0.10.147,1,CV,1,2,1,ListProc,ConditionList,44,kutwipakutwipa,kutkutwipa,kukutwipa,3,5,3,big pig,pigs,pigs,pig,kukutwipa,kutkutwipa,kutkutwipa,kutwipakutwipa,kutwipa,59,5,3,1,1,TrialProc,Plural,1,kutwipakutwipa,TrialList1,1,1,"-999,999",17,289973,0,1,1424,291397,59,1,44
FHList1June8,1,1,"<?xml version=""1.0""?>\n<Clock xmlns:dt=""urn:schemas-microsoft-com:datatypes""><Description dt:dt=""string"">E-Prime Primary Realtime Clock</Description><StartTime><Timestamp dt:dt=""int"">0</Timestamp><DateUtc dt:dt=""string"">2012-09-05T20:18:34Z</DateUtc></StartTime><FrequencyChanges><FrequencyChange><Frequency dt:dt=""r8"">3399980000</Frequency><Timestamp dt:dt=""r8"">1251152450007</Timestamp><Current dt:dt=""r8"">0</Current><DateUtc dt:dt=""string"">2012-09-05T20:18:34Z</DateUtc></FrequencyChange></FrequencyChanges></Clock>\n",FHList1June8-1-1,60,1.0.0.1,1,2004208837,2.0.10.242,2.0.10.242,9/5/2012,9/5/2012 20:18,13:18:34,2.0.10.147,1,CV,1,2,1,ListProc,ConditionList,45,puhpuhilu,pupuhilu,puhilupuhilu,1,3,3,big city,cities,big city,city,pupuhilu,puhpuhilu,pupuhilu,puhilupuhilu,puhilu,128,3,1,5,5,TrialProc,Big,3,pupuhilu,TrialList1,1,3,"-999,999",1,293923,0,3,2389,296312,128,1,45
FHList1June8,1,1,"<?xml version=""1.0""?>\n<Clock xmlns:dt=""urn:schemas-microsoft-com:datatypes""><Description dt:dt=""string"">E-Prime Primary Realtime Clock</Description><StartTime><Timestamp dt:dt=""int"">0</Timestamp><DateUtc dt:dt=""string"">2012-09-05T20:18:34Z</DateUtc></StartTime><FrequencyChanges><FrequencyChange><Frequency dt:dt=""r8"">3399980000</Frequency><Timestamp dt:dt=""r8"">1251152450007</Timestamp><Current dt:dt=""r8"">0</Current><DateUtc dt:dt=""string"">2012-09-05T20:18:34Z</DateUtc></FrequencyChange></FrequencyChanges></Clock>\n",FHList1June8-1-1,60,1.0.0.1,1,2004208837,2.0.10.242,2.0.10.242,9/5/2012,9/5/2012 20:18,13:18:34,2.0.10.147,1,CV,1,2,1,ListProc,ConditionList,46,vavamseta,vamvamseta,vamsetavamseta,3,1,3,big dog,dogs,dogs,dog,vavamseta,vamvamseta,vamvamseta,vamsetavamseta,vamseta,1,1,3,5,5,TrialProc,Plural,5,vamsetavamseta,TrialList1,1,5,"-999,999",15,298839,0,5,1781,300620,1,1,46
FHList1June8,1,1,"<?xml version=""1.0""?>\n<Clock xmlns:dt=""urn:schemas-microsoft-com:datatypes""><Description dt:dt=""string"">E-Prime Primary Realtime Clock</Description><StartTime><Timestamp dt:dt=""int"">0</Timestamp><DateUtc dt:dt=""string"">2012-09-05T20:18:34Z</DateUtc></StartTime><FrequencyChanges><FrequencyChange><Frequency dt:dt=""r8"">3399980000</Frequency><Timestamp dt:dt=""r8"">1251152450007</Timestamp><Current dt:dt=""r8"">0</Current><DateUtc dt:dt=""string"">2012-09-05T20:18:34Z</DateUtc></FrequencyChange></FrequencyChanges></Clock>\n",FHList1June8-1-1,60,1.0.0.1,1,2004208837,2.0.10.242,2.0.10.242,9/5/2012,9/5/2012 20:18,13:18:34,2.0.10.147,1,CV,1,2,1,ListProc,ConditionList,47,balbalhala,balhalabalhala,babalhala,1,5,1,big grass,grasses,grasses,grass,babalhala,balbalhala,balbalhala,balhalabalhala,balhala,3,3,5,1,3,TrialProc,Plural,3,balhalabalhala,TrialList1,1,3,"-999,999",17,303173,0,3,1620,304793,3,1,47
FHList1June8,1,1,"<?xml version=""1.0""?>\n<Clock xmlns:dt=""urn:schemas-microsoft-com:datatypes""><Description dt:dt=""string"">E-Prime Primary Realtime Clock</Description><StartTime><Timestamp dt:dt=""int"">0</Timestamp><DateUtc dt:dt=""string"">2012-09-05T20:18:34Z</DateUtc></StartTime><FrequencyChanges><FrequencyChange><Frequency dt:dt=""r8"">3399980000</Frequency><Timestamp dt:dt=""r8"">1251152450007</Timestamp><Current dt:dt=""r8"">0</Current><DateUtc dt:dt=""string"">2012-09-05T20:18:34Z</DateUtc></FrequencyChange></FrequencyChanges></Clock>\n",FHList1June8-1-1,60,1.0.0.1,1,2004208837,2.0.10.242,2.0.10.242,9/5/2012,9/5/2012 20:18,13:18:34,2.0.10.147,1,CV,1,2,1,ListProc,ConditionList,48,sisiwita,siwsiwita,siwitasiwita,3,1,1,big cup,cups,big cup,cup,sisiwita,siwsiwita,sisiwita,siwitasiwita,siwita,85,1,3,5,5,TrialProc,Big,1,sisiwita,TrialList1,1,1,"-999,999",16,307339,0,1,1745,309084,85,1,48
FHList1June8,1,1,"<?xml version=""1.0""?>\n<Clock xmlns:dt=""urn:schemas-microsoft-com:datatypes""><Description dt:dt=""string"">E-Prime Primary Realtime Clock</Description><StartTime><Timestamp dt:dt=""int"">0</Timestamp><DateUtc dt:dt=""string"">2012-09-05T20:18:34Z</DateUtc></StartTime><FrequencyChanges><FrequencyChange><Frequency dt:dt=""r8"">3399980000</Frequency><Timestamp dt:dt=""r8"">1251152450007</Timestamp><Current dt:dt=""r8"">0</Current><DateUtc dt:dt=""string"">2012-09-05T20:18:34Z</DateUtc></FrequencyChange></FrequencyChanges></Clock>\n",FHList1June8-1-1,60,1.0.0.1,1,2004208837,2.0.10.242,2.0.10.242,9/5/2012,9/5/2012 20:18,13:18:34,2.0.10.147,1,CV,1,2,1,ListProc,ConditionList,49,kaskasolu,kakasolu,kasolukasolu,1,3,3,big ring,rings,big ring,ring,kakasolu,kaskasolu,kakasolu,kasolukasolu,kasolu,98,3,1,5,5,TrialProc,Big,3,kakasolu,TrialList1,1,3,"-999,999",16,311639,0,3,2659,314298,98,1,49
FHList1June8,1,1,"<?xml version=""1.0""?>\n<Clock xmlns:dt=""urn:schemas-microsoft-com:datatypes""><Description dt:dt=""string"">E-Prime Primary Realtime Clock</Description><StartTime><Timestamp dt:dt=""int"">0</Timestamp><DateUtc dt:dt=""string"">2012-09-05T20:18:34Z</DateUtc></StartTime><FrequencyChanges><FrequencyChange><Frequency dt:dt=""r8"">3399980000</Frequency><Timestamp dt:dt=""r8"">1251152450007</Timestamp><Current dt:dt=""r8"">0</Current><DateUtc dt:dt=""string"">2012-09-05T20:18:34Z</DateUtc></FrequencyChange></FrequencyChanges></Clock>\n",FHList1June8-1-1,60,1.0.0.1,1,2004208837,2.0.10.242,2.0.10.242,9/5/2012,9/5/2012 20:18,13:18:34,2.0.10.147,1,CV,1,2,1,ListProc,ConditionList,50,nonokmulu,noknokmulu,nokmulunokmulu,3,1,3,big wave,waves,big wave,wave,nonokmulu,noknokmulu,noknokmulu,nokmulunokmulu,nokmulu,121,1,3,5,5,TrialProc,Big,1,nonokmulu,TrialList1,1,1,"-999,999",1,316840,0,1,2026,318866,121,1,50
FHList1June8,1,1,"<?xml version=""1.0""?>\n<Clock xmlns:dt=""urn:schemas-microsoft-com:datatypes""><Description dt:dt=""string"">E-Prime Primary Realtime Clock</Description><StartTime><Timestamp dt:dt=""int"">0</Timestamp><DateUtc dt:dt=""string"">2012-09-05T20:18:34Z</DateUtc></StartTime><FrequencyChanges><FrequencyChange><Frequency dt:dt=""r8"">3399980000</Frequency><Timestamp dt:dt=""r8"">1251152450007</Timestamp><Current dt:dt=""r8"">0</Current><DateUtc dt:dt=""string"">2012-09-05T20:18:34Z</DateUtc></FrequencyChange></FrequencyChanges></Clock>\n",FHList1June8-1-1,60,1.0.0.1,1,2004208837,2.0.10.242,2.0.10.242,9/5/2012,9/5/2012 20:18,13:18:34,2.0.10.147,1,CV,1,2,1,ListProc,ConditionList,51,rerevupa,revrevupa,revuparevupa,3,1,1,big hill,hills,big hill,hill,rerevupa,revrevupa,rerevupa,revuparevupa,revupa,133,1,3,5,5,TrialProc,Big,1,rerevupa,TrialList1,1,1,"-999,999",17,321406,0,1,3357,324763,133,1,51
FHList1June8,1,1,"<?xml version=""1.0""?>\n<Clock xmlns:dt=""urn:schemas-microsoft-com:datatypes""><Description dt:dt=""string"">E-Prime Primary Realtime Clock</Description><StartTime><Timestamp dt:dt=""int"">0</Timestamp><DateUtc dt:dt=""string"">2012-09-05T20:18:34Z</DateUtc></StartTime><FrequencyChanges><FrequencyChange><Frequency dt:dt=""r8"">3399980000</Frequency><Timestamp dt:dt=""r8"">1251152450007</Timestamp><Current dt:dt=""r8"">0</Current><DateUtc dt:dt=""string"">2012-09-05T20:18:34Z</DateUtc></FrequencyChange></FrequencyChanges></Clock>\n",FHList1June8-1-1,60,1.0.0.1,1,2004208837,2.0.10.242,2.0.10.242,9/5/2012,9/5/2012 20:18,13:18:34,2.0.10.147,1,CV,1,2,1,ListProc,ConditionList,52,tatakwilu,taktakwilu,takwilutakwilu,3,1,3,big shoe,shoes,shoes,shoe,tatakwilu,taktakwilu,taktakwilu,takwilutakwilu,takwilu,37,1,3,5,5,TrialProc,Plural,5,takwilutakwilu,TrialList1,1,5,"-999,999",1,327290,0,5,1945,329235,37,1,52
FHList1June8,1,1,"<?xml version=""1.0""?>\n<Clock xmlns:dt=""urn:schemas-microsoft-com:datatypes""><Description dt:dt=""string"">E-Prime Primary Realtime Clock</Description><StartTime><Timestamp dt:dt=""int"">0</Timestamp><DateUtc dt:dt=""string"">2012-09-05T20:18:34Z</DateUtc></StartTime><FrequencyChanges><FrequencyChange><Frequency dt:dt=""r8"">3399980000</Frequency><Timestamp dt:dt=""r8"">1251152450007</Timestamp><Current dt:dt=""r8"">0</Current><DateUtc dt:dt=""string"">2012-09-05T20:18:34Z</DateUtc></FrequencyChange></FrequencyChanges></Clock>\n",FHList1June8-1-1,60,1.0.0.1,1,2004208837,2.0.10.242,2.0.10.242,9/5/2012,9/5/2012 20:18,13:18:34,2.0.10.147,1,CV,1,2,1,ListProc,ConditionList,53,hiwiluhiwilu,hihiwilu,hiwhiwilu,5,3,3,big cloud,clouds,clouds,cloud,hihiwilu,hiwhiwilu,hihiwilu,hiwiluhiwilu,hiwilu,4,5,1,3,1,TrialProc,Plural,1,hiwiluhiwilu,TrialList1,1,1,"-999,999",16,331789,0,1,1178,332967,4,1,53
FHList1June8,1,1,"<?xml version=""1.0""?>\n<Clock xmlns:dt=""urn:schemas-microsoft-com:datatypes""><Description dt:dt=""string"">E-Prime Primary Realtime Clock</Description><StartTime><Timestamp dt:dt=""int"">0</Timestamp><DateUtc dt:dt=""string"">2012-09-05T20:18:34Z</DateUtc></StartTime><FrequencyChanges><FrequencyChange><Frequency dt:dt=""r8"">3399980000</Frequency><Timestamp dt:dt=""r8"">1251152450007</Timestamp><Current dt:dt=""r8"">0</Current><DateUtc dt:dt=""string"">2012-09-05T20:18:34Z</DateUtc></FrequencyChange></FrequencyChanges></Clock>\n",FHList1June8-1-1,60,1.0.0.1,1,2004208837,2.0.10.242,2.0.10.242,9/5/2012,9/5/2012 20:18,13:18:34,2.0.10.147,1,CV,1,2,1,ListProc,ConditionList,54,tektekipa,tetekipa,tekipatekipa,1,3,3,big box,boxes,boxes,box,tetekipa,tektekipa,tetekipa,tekipatekipa,tekipa,56,3,1,5,5,TrialProc,Plural,5,tekipatekipa,TrialList1,1,5,"-999,999",1,335507,0,5,1459,336966,56,1,54
FHList1June8,1,1,"<?xml version=""1.0""?>\n<Clock xmlns:dt=""urn:schemas-microsoft-com:datatypes""><Description dt:dt=""string"">E-Prime Primary Realtime Clock</Description><StartTime><Timestamp dt:dt=""int"">0</Timestamp><DateUtc dt:dt=""string"">2012-09-05T20:18:34Z</DateUtc></StartTime><FrequencyChanges><FrequencyChange><Frequency dt:dt=""r8"">3399980000</Frequency><Timestamp dt:dt=""r8"">1251152450007</Timestamp><Current dt:dt=""r8"">0</Current><DateUtc dt:dt=""string"">2012-09-05T20:18:34Z</DateUtc></FrequencyChange></FrequencyChanges></Clock>\n",FHList1June8-1-1,60,1.0.0.1,1,2004208837,2.0.10.242,2.0.10.242,9/5/2012,9/5/2012 20:18,13:18:34,2.0.10.147,1,CV,1,2,1,ListProc,ConditionList,55,tatakmupa,taktakmupa,takmupatakmupa,3,1,3,big drum,drums,drums,drum,tatakmupa,taktakmupa,taktakmupa,takmupatakmupa,takmupa,67,1,3,5,5,TrialProc,Plural,5,takmupatakmupa,TrialList1,1,5,"-999,999",1,339490,0,5,1830,341320,67,1,55
FHList1June8,1,1,"<?xml version=""1.0""?>\n<Clock xmlns:dt=""urn:schemas-microsoft-com:datatypes""><Description dt:dt=""string"">E-Prime Primary Realtime Clock</Description><StartTime><Timestamp dt:dt=""int"">0</Timestamp><DateUtc dt:dt=""string"">2012-09-05T20:18:34Z</DateUtc></StartTime><FrequencyChanges><FrequencyChange><Frequency dt:dt=""r8"">3399980000</Frequency><Timestamp dt:dt=""r8"">1251152450007</Timestamp><Current dt:dt=""r8"">0</Current><DateUtc dt:dt=""string"">2012-09-05T20:18:34Z</DateUtc></FrequencyChange></FrequencyChanges></Clock>\n",FHList1June8-1-1,60,1.0.0.1,1,2004208837,2.0.10.242,2.0.10.242,9/5/2012,9/5/2012 20:18,13:18:34,2.0.10.147,1,CV,1,2,1,ListProc,ConditionList,56,woknutawoknuta,wowoknuta,wokwoknuta,5,3,5,big brick,bricks,big brick,brick,wowoknuta,wokwoknuta,wokwoknuta,woknutawoknuta,woknuta,82,5,1,3,1,TrialProc,Big,3,wowoknuta,TrialList1,1,3,"-999,999",17,343873,0,3,1879,345752,82,1,56
FHList1June8,1,1,"<?xml version=""1.0""?>\n<Clock xmlns:dt=""urn:schemas-microsoft-com:datatypes""><Description dt:dt=""string"">E-Prime Primary Realtime Clock</Description><StartTime><Timestamp dt:dt=""int"">0</Timestamp><DateUtc dt:dt=""string"">2012-09-05T20:18:34Z</DateUtc></StartTime><FrequencyChanges><FrequencyChange><Frequency dt:dt=""r8"">3399980000</Frequency><Timestamp dt:dt=""r8"">1251152450007</Timestamp><Current dt:dt=""r8"">0</Current><DateUtc dt:dt=""string"">2012-09-05T20:18:34Z</DateUtc></FrequencyChange></FrequencyChanges></Clock>\n",FHList1June8-1-1,60,1.0.0.1,1,2004208837,2.0.10.242,2.0.10.242,9/5/2012,9/5/2012 20:18,13:18:34,2.0.10.147,1,CV,1,2,1,ListProc,ConditionList,57,jabjabilu,jajabilu,jabilujabilu,1,3,3,big hook,hooks,hooks,hook,jajabilu,jabjabilu,jajabilu,jabilujabilu,jabilu,68,3,1,5,5,TrialProc,Plural,5,jabilujabilu,TrialList1,1,5,"-999,999",17,348306,0,5,1341,349647,68,1,57
FHList1June8,1,1,"<?xml version=""1.0""?>\n<Clock xmlns:dt=""urn:schemas-microsoft-com:datatypes""><Description dt:dt=""string"">E-Prime Primary Realtime Clock</Description><StartTime><Timestamp dt:dt=""int"">0</Timestamp><DateUtc dt:dt=""string"">2012-09-05T20:18:34Z</DateUtc></StartTime><FrequencyChanges><FrequencyChange><Frequency dt:dt=""r8"">3399980000</Frequency><Timestamp dt:dt=""r8"">1251152450007</Timestamp><Current dt:dt=""r8"">0</Current><DateUtc dt:dt=""string"">2012-09-05T20:18:34Z</DateUtc></FrequencyChange></FrequencyChanges></Clock>\n",FHList1June8-1-1,60,1.0.0.1,1,2004208837,2.0.10.242,2.0.10.242,9/5/2012,9/5/2012 20:18,13:18:34,2.0.10.147,1,CV,1,2,1,ListProc,ConditionList,58,hamuluhamulu,hahamulu,hamhamulu,5,3,3,big map,maps,maps,map,hahamulu,hamhamulu,hahamulu,hamuluhamulu,hamulu,58,5,1,3,1,TrialProc,Plural,1,hamuluhamulu,TrialList1,1,1,"-999,999",1,352190,0,1,1400,353590,58,1,58
FHList1June8,1,1,"<?xml version=""1.0""?>\n<Clock xmlns:dt=""urn:schemas-microsoft-com:datatypes""><Description dt:dt=""string"">E-Prime Primary Realtime Clock</Description><StartTime><Timestamp dt:dt=""int"">0</Timestamp><DateUtc dt:dt=""string"">2012-09-05T20:18:34Z</DateUtc></StartTime><FrequencyChanges><FrequencyChange><Frequency dt:dt=""r8"">3399980000</Frequency><Timestamp dt:dt=""r8"">1251152450007</Timestamp><Current dt:dt=""r8"">0</Current><DateUtc dt:dt=""string"">2012-09-05T20:18:34Z</DateUtc></FrequencyChange></FrequencyChanges></Clock>\n",FHList1June8-1-1,60,1.0.0.1,1,2004208837,2.0.10.242,2.0.10.242,9/5/2012,9/5/2012 20:18,13:18:34,2.0.10.147,1,CV,1,2,1,ListProc,ConditionList,59,baltowabaltowa,balbaltowa,babaltowa,3,5,3,big star,stars,stars,star,babaltowa,balbaltowa,balbaltowa,baltowabaltowa,baltowa,17,5,3,1,1,TrialProc,Plural,1,baltowabaltowa,TrialList1,1,1,"-999,999",16,356139,0,1,1924,358063,17,1,59
FHList1June8,1,1,"<?xml version=""1.0""?>\n<Clock xmlns:dt=""urn:schemas-microsoft-com:datatypes""><Description dt:dt=""string"">E-Prime Primary Realtime Clock</Description><StartTime><Timestamp dt:dt=""int"">0</Timestamp><DateUtc dt:dt=""string"">2012-09-05T20:18:34Z</DateUtc></StartTime><FrequencyChanges><FrequencyChange><Frequency dt:dt=""r8"">3399980000</Frequency><Timestamp dt:dt=""r8"">1251152450007</Timestamp><Current dt:dt=""r8"">0</Current><DateUtc dt:dt=""string"">2012-09-05T20:18:34Z</DateUtc></FrequencyChange></FrequencyChanges></Clock>\n",FHList1June8-1-1,60,1.0.0.1,1,2004208837,2.0.10.242,2.0.10.242,9/5/2012,9/5/2012 20:18,13:18:34,2.0.10.147,1,CV,1,2,1,ListProc,ConditionList,60,rehrehilu,rerehilu,rehilurehilu,1,3,3,big snail,snails,snails,snail,rerehilu,rehrehilu,rerehilu,rehilurehilu,rehilu,44,3,1,5,5,TrialProc,Plural,5,rehilurehilu,TrialList1,1,5,"-999,999",1,360590,0,5,1038,361628,44,1,60
FHList1June8,1,1,"<?xml version=""1.0""?>\n<Clock xmlns:dt=""urn:schemas-microsoft-com:datatypes""><Description dt:dt=""string"">E-Prime Primary Realtime Clock</Description><StartTime><Timestamp dt:dt=""int"">0</Timestamp><DateUtc dt:dt=""string"">2012-09-05T20:18:34Z</DateUtc></StartTime><FrequencyChanges><FrequencyChange><Frequency dt:dt=""r8"">3399980000</Frequency><Timestamp dt:dt=""r8"">1251152450007</Timestamp><Current dt:dt=""r8"">0</Current><DateUtc dt:dt=""string"">2012-09-05T20:18:34Z</DateUtc></FrequencyChange></FrequencyChanges></Clock>\n",FHList1June8-1-1,60,1.0.0.1,1,2004208837,2.0.10.242,2.0.10.242,9/5/2012,9/5/2012 20:18,13:18:34,2.0.10.147,1,CV,1,2,1,ListProc,ConditionList,61,hinutahinuta,hihinuta,hinhinuta,5,3,3,big lake,lakes,lakes,lake,hihinuta,hinhinuta,hihinuta,hinutahinuta,hinuta,10,5,1,3,1,TrialProc,Plural,1,hinutahinuta,TrialList1,1,1,"-999,999",16,364189,0,1,1096,365285,10,1,61
FHList1June8,1,1,"<?xml version=""1.0""?>\n<Clock xmlns:dt=""urn:schemas-microsoft-com:datatypes""><Description dt:dt=""string"">E-Prime Primary Realtime Clock</Description><StartTime><Timestamp dt:dt=""int"">0</Timestamp><DateUtc dt:dt=""string"">2012-09-05T20:18:34Z</DateUtc></StartTime><FrequencyChanges><FrequencyChange><Frequency dt:dt=""r8"">3399980000</Frequency><Timestamp dt:dt=""r8"">1251152450007</Timestamp><Current dt:dt=""r8"">0</Current><DateUtc dt:dt=""string"">2012-09-05T20:18:34Z</DateUtc></FrequencyChange></FrequencyChanges></Clock>\n",FHList1June8-1-1,60,1.0.0.1,1,2004208837,2.0.10.242,2.0.10.242,9/5/2012,9/5/2012 20:18,13:18:34,2.0.10.147,1,CV,1,2,1,ListProc,ConditionList,62,vamvamtopa,vamtopavamtopa,vavamtopa,1,5,1,big mask,masks,masks,mask,vavamtopa,vamvamtopa,vamvamtopa,vamtopavamtopa,vamtopa,63,3,5,1,3,TrialProc,Plural,3,vamtopavamtopa,TrialList1,1,3,"-999,999",16,367839,0,3,1465,369304,63,1,62
FHList1June8,1,1,"<?xml version=""1.0""?>\n<Clock xmlns:dt=""urn:schemas-microsoft-com:datatypes""><Description dt:dt=""string"">E-Prime Primary Realtime Clock</Description><StartTime><Timestamp dt:dt=""int"">0</Timestamp><DateUtc dt:dt=""string"">2012-09-05T20:18:34Z</DateUtc></StartTime><FrequencyChanges><FrequencyChange><Frequency dt:dt=""r8"">3399980000</Frequency><Timestamp dt:dt=""r8"">1251152450007</Timestamp><Current dt:dt=""r8"">0</Current><DateUtc dt:dt=""string"">2012-09-05T20:18:34Z</DateUtc></FrequencyChange></FrequencyChanges></Clock>\n",FHList1June8-1-1,60,1.0.0.1,1,2004208837,2.0.10.242,2.0.10.242,9/5/2012,9/5/2012 20:18,13:18:34,2.0.10.147,1,CV,1,2,1,ListProc,ConditionList,63,vekotavekota,vekvekota,vevekota,3,5,5,big circle,circles,big circle,circle,vevekota,vekvekota,vevekota,vekotavekota,vekota,77,5,3,1,1,TrialProc,Big,5,vevekota,TrialList1,1,5,"-999,999",2,371841,0,5,2284,374125,77,1,63
FHList1June8,1,1,"<?xml version=""1.0""?>\n<Clock xmlns:dt=""urn:schemas-microsoft-com:datatypes""><Description dt:dt=""string"">E-Prime Primary Realtime Clock</Description><StartTime><Timestamp dt:dt=""int"">0</Timestamp><DateUtc dt:dt=""string"">2012-09-05T20:18:34Z</DateUtc></StartTime><FrequencyChanges><FrequencyChange><Frequency dt:dt=""r8"">3399980000</Frequency><Timestamp dt:dt=""r8"">1251152450007</Timestamp><Current dt:dt=""r8"">0</Current><DateUtc dt:dt=""string"">2012-09-05T20:18:34Z</DateUtc></FrequencyChange></FrequencyChanges></Clock>\n",FHList1June8-1-1,60,1.0.0.1,1,2004208837,2.0.10.242,2.0.10.242,9/5/2012,9/5/2012 20:18,13:18:34,2.0.10.147,1,CV,1,2,1,ListProc,ConditionList,64,womsepawomsepa,wowomsepa,womwomsepa,5,3,5,big flag,flags,flags,flag,wowomsepa,womwomsepa,womwomsepa,womsepawomsepa,womsepa,28,5,1,3,1,TrialProc,Plural,1,womsepawomsepa,TrialList1,1,1,"-999,999",17,376673,0,1,1316,377989,28,1,64
FHList1June8,1,1,"<?xml version=""1.0""?>\n<Clock xmlns:dt=""urn:schemas-microsoft-com:datatypes""><Description dt:dt=""string"">E-Prime Primary Realtime Clock</Description><StartTime><Timestamp dt:dt=""int"">0</Timestamp><DateUtc dt:dt=""string"">2012-09-05T20:18:34Z</DateUtc></StartTime><FrequencyChanges><FrequencyChange><Frequency dt:dt=""r8"">3399980000</Frequency><Timestamp dt:dt=""r8"">1251152450007</Timestamp><Current dt:dt=""r8"">0</Current><DateUtc dt:dt=""string"">2012-09-05T20:18:34Z</DateUtc></FrequencyChange></FrequencyChanges></Clock>\n",FHList1June8-1-1,60,1.0.0.1,1,2004208837,2.0.10.242,2.0.10.242,9/5/2012,9/5/2012 20:18,13:18:34,2.0.10.147,1,CV,1,2,1,ListProc,ConditionList,65,hihiwita,hiwitahiwita,hiwhiwita,5,1,1,big flame,flames,big flame,flame,hihiwita,hiwhiwita,hihiwita,hiwitahiwita,hiwita,114,1,5,3,3,TrialProc,Big,1,hihiwita,TrialList1,0,1,"-999,999",16,380539,0,5,2503,383042,114,1,65
FHList1June8,1,1,"<?xml version=""1.0""?>\n<Clock xmlns:dt=""urn:schemas-microsoft-com:datatypes""><Description dt:dt=""string"">E-Prime Primary Realtime Clock</Description><StartTime><Timestamp dt:dt=""int"">0</Timestamp><DateUtc dt:dt=""string"">2012-09-05T20:18:34Z</DateUtc></StartTime><FrequencyChanges><FrequencyChange><Frequency dt:dt=""r8"">3399980000</Frequency><Timestamp dt:dt=""r8"">1251152450007</Timestamp><Current dt:dt=""r8"">0</Current><DateUtc dt:dt=""string"">2012-09-05T20:18:34Z</DateUtc></FrequencyChange></FrequencyChanges></Clock>\n",FHList1June8-1-1,60,1.0.0.1,1,2004208837,2.0.10.242,2.0.10.242,9/5/2012,9/5/2012 20:18,13:18:34,2.0.10.147,1,CV,1,2,1,ListProc,ConditionList,66,womhisawomhisa,wowomhisa,womwomhisa,5,3,5,big scale,scales,scales,scale,wowomhisa,womwomhisa,womwomhisa,womhisawomhisa,womhisa,70,5,1,3,1,TrialProc,Plural,1,womhisawomhisa,TrialList1,1,1,"-999,999",2,385591,0,1,1645,387236,70,1,66
FHList1June8,1,1,"<?xml version=""1.0""?>\n<Clock xmlns:dt=""urn:schemas-microsoft-com:datatypes""><Description dt:dt=""string"">E-Prime Primary Realtime Clock</Description><StartTime><Timestamp dt:dt=""int"">0</Timestamp><DateUtc dt:dt=""string"">2012-09-05T20:18:34Z</DateUtc></StartTime><FrequencyChanges><FrequencyChange><Frequency dt:dt=""r8"">3399980000</Frequency><Timestamp dt:dt=""r8"">1251152450007</Timestamp><Current dt:dt=""r8"">0</Current><DateUtc dt:dt=""string"">2012-09-05T20:18:34Z</DateUtc></FrequencyChange></FrequencyChanges></Clock>\n",FHList1June8-1-1,60,1.0.0.1,1,2004208837,2.0.10.242,2.0.10.242,9/5/2012,9/5/2012 20:18,13:18:34,2.0.10.147,1,CV,1,2,1,ListProc,ConditionList,67,jamutajamuta,jajamuta,jamjamuta,5,3,3,big meat,meats,meats,meat,jajamuta,jamjamuta,jajamuta,jamutajamuta,jamuta,64,5,1,3,1,TrialProc,Plural,1,jamutajamuta,TrialList1,1,1,"-999,999",16,389789,0,1,1264,391053,64,1,67
FHList1June8,1,1,"<?xml version=""1.0""?>\n<Clock xmlns:dt=""urn:schemas-microsoft-com:datatypes""><Description dt:dt=""string"">E-Prime Primary Realtime Clock</Description><StartTime><Timestamp dt:dt=""int"">0</Timestamp><DateUtc dt:dt=""string"">2012-09-05T20:18:34Z</DateUtc></StartTime><FrequencyChanges><FrequencyChange><Frequency dt:dt=""r8"">3399980000</Frequency><Timestamp dt:dt=""r8"">1251152450007</Timestamp><Current dt:dt=""r8"">0</Current><DateUtc dt:dt=""string"">2012-09-05T20:18:34Z</DateUtc></FrequencyChange></FrequencyChanges></Clock>\n",FHList1June8-1-1,60,1.0.0.1,1,2004208837,2.0.10.242,2.0.10.242,9/5/2012,9/5/2012 20:18,13:18:34,2.0.10.147,1,CV,1,2,1,ListProc,ConditionList,68,hevhevupa,hevupahevupa,hehevupa,1,5,5,big wood,woods,woods,wood,hehevupa,hevhevupa,hehevupa,hevupahevupa,hevupa,75,3,5,1,3,TrialProc,Plural,3,hevupahevupa,TrialList1,1,3,"-999,999",2,393591,0,3,2809,396400,75,1,68
FHList1June8,1,1,"<?xml version=""1.0""?>\n<Clock xmlns:dt=""urn:schemas-microsoft-com:datatypes""><Description dt:dt=""string"">E-Prime Primary Realtime Clock</Description><StartTime><Timestamp dt:dt=""int"">0</Timestamp><DateUtc dt:dt=""string"">2012-09-05T20:18:34Z</DateUtc></StartTime><FrequencyChanges><FrequencyChange><Frequency dt:dt=""r8"">3399980000</Frequency><Timestamp dt:dt=""r8"">1251152450007</Timestamp><Current dt:dt=""r8"">0</Current><DateUtc dt:dt=""string"">2012-09-05T20:18:34Z</DateUtc></FrequencyChange></FrequencyChanges></Clock>\n",FHList1June8-1-1,60,1.0.0.1,1,2004208837,2.0.10.242,2.0.10.242,9/5/2012,9/5/2012 20:18,13:18:34,2.0.10.147,1,CV,1,2,1,ListProc,ConditionList,69,hihimolu,himoluhimolu,himhimolu,5,1,1,big rug,rugs,big rug,rug,hihimolu,himhimolu,hihimolu,himoluhimolu,himolu,108,1,5,3,3,TrialProc,Big,1,hihimolu,TrialList1,1,1,"-999,999",17,398956,0,1,3066,402022,108,1,69
FHList1June8,1,1,"<?xml version=""1.0""?>\n<Clock xmlns:dt=""urn:schemas-microsoft-com:datatypes""><Description dt:dt=""string"">E-Prime Primary Realtime Clock</Description><StartTime><Timestamp dt:dt=""int"">0</Timestamp><DateUtc dt:dt=""string"">2012-09-05T20:18:34Z</DateUtc></StartTime><FrequencyChanges><FrequencyChange><Frequency dt:dt=""r8"">3399980000</Frequency><Timestamp dt:dt=""r8"">1251152450007</Timestamp><Current dt:dt=""r8"">0</Current><DateUtc dt:dt=""string"">2012-09-05T20:18:34Z</DateUtc></FrequencyChange></FrequencyChanges></Clock>\n",FHList1June8-1-1,60,1.0.0.1,1,2004208837,2.0.10.242,2.0.10.242,9/5/2012,9/5/2012 20:18,13:18:34,2.0.10.147,1,CV,1,2,1,ListProc,ConditionList,70,kokohalu,kohalukohalu,kohkohalu,5,1,1,big river,rivers,rivers,river,kokohalu,kohkohalu,kokohalu,kohalukohalu,kohalu,18,1,5,3,3,TrialProc,Plural,3,kohalukohalu,TrialList1,1,3,"-999,999",1,404557,0,3,2438,406995,18,1,70
FHList1June8,1,1,"<?xml version=""1.0""?>\n<Clock xmlns:dt=""urn:schemas-microsoft-com:datatypes""><Description dt:dt=""string"">E-Prime Primary Realtime Clock</Description><StartTime><Timestamp dt:dt=""int"">0</Timestamp><DateUtc dt:dt=""string"">2012-09-05T20:18:34Z</DateUtc></StartTime><FrequencyChanges><FrequencyChange><Frequency dt:dt=""r8"">3399980000</Frequency><Timestamp dt:dt=""r8"">1251152450007</Timestamp><Current dt:dt=""r8"">0</Current><DateUtc dt:dt=""string"">2012-09-05T20:18:34Z</DateUtc></FrequencyChange></FrequencyChanges></Clock>\n",FHList1June8-1-1,60,1.0.0.1,1,2004208837,2.0.10.242,2.0.10.242,9/5/2012,9/5/2012 20:18,13:18:34,2.0.10.147,1,CV,1,2,1,ListProc,ConditionList,71,punusapunusa,pupunusa,punpunusa,5,3,3,big window,windows,big window,window,pupunusa,punpunusa,pupunusa,punusapunusa,punusa,100,5,1,3,1,TrialProc,Big,3,pupunusa,TrialList1,1,3,"-999,999",2,409541,0,3,2441,411982,100,1,71
FHList1June8,1,1,"<?xml version=""1.0""?>\n<Clock xmlns:dt=""urn:schemas-microsoft-com:datatypes""><Description dt:dt=""string"">E-Prime Primary Realtime Clock</Description><StartTime><Timestamp dt:dt=""int"">0</Timestamp><DateUtc dt:dt=""string"">2012-09-05T20:18:34Z</DateUtc></StartTime><FrequencyChanges><FrequencyChange><Frequency dt:dt=""r8"">3399980000</Frequency><Timestamp dt:dt=""r8"">1251152450007</Timestamp><Current dt:dt=""r8"">0</Current><DateUtc dt:dt=""string"">2012-09-05T20:18:34Z</DateUtc></FrequencyChange></FrequencyChanges></Clock>\n",FHList1June8-1-1,60,1.0.0.1,1,2004208837,2.0.10.242,2.0.10.242,9/5/2012,9/5/2012 20:18,13:18:34,2.0.10.147,1,CV,1,2,1,ListProc,ConditionList,72,lamlambita,lambitalambita,lalambita,1,5,1,big tail,tails,big tail,tail,lalambita,lamlambita,lamlambita,lambitalambita,lambita,99,3,5,1,3,TrialProc,Big,5,lalambita,TrialList1,1,5,"-999,999",16,414539,0,5,2802,417341,99,1,72
FHList1June8,1,1,"<?xml version=""1.0""?>\n<Clock xmlns:dt=""urn:schemas-microsoft-com:datatypes""><Description dt:dt=""string"">E-Prime Primary Realtime Clock</Description><StartTime><Timestamp dt:dt=""int"">0</Timestamp><DateUtc dt:dt=""string"">2012-09-05T20:18:34Z</DateUtc></StartTime><FrequencyChanges><FrequencyChange><Frequency dt:dt=""r8"">3399980000</Frequency><Timestamp dt:dt=""r8"">1251152450007</Timestamp><Current dt:dt=""r8"">0</Current><DateUtc dt:dt=""string"">2012-09-05T20:18:34Z</DateUtc></FrequencyChange></FrequencyChanges></Clock>\n",FHList1June8-1-1,60,1.0.0.1,1,2004208837,2.0.10.242,2.0.10.242,9/5/2012,9/5/2012 20:18,13:18:34,2.0.10.147,1,CV,1,2,1,ListProc,ConditionList,73,kalkalhalu,kakalhalu,kalhalukalhalu,1,3,1,big case,cases,big case,case,kakalhalu,kalkalhalu,kalkalhalu,kalhalukalhalu,kalhalu,140,3,1,5,5,TrialProc,Big,3,kakalhalu,TrialList1,1,3,"-999,999",16,419889,0,3,2272,422161,140,1,73
FHList1June8,1,1,"<?xml version=""1.0""?>\n<Clock xmlns:dt=""urn:schemas-microsoft-com:datatypes""><Description dt:dt=""string"">E-Prime Primary Realtime Clock</Description><StartTime><Timestamp dt:dt=""int"">0</Timestamp><DateUtc dt:dt=""string"">2012-09-05T20:18:34Z</DateUtc></StartTime><FrequencyChanges><FrequencyChange><Frequency dt:dt=""r8"">3399980000</Frequency><Timestamp dt:dt=""r8"">1251152450007</Timestamp><Current dt:dt=""r8"">0</Current><DateUtc dt:dt=""string"">2012-09-05T20:18:34Z</DateUtc></FrequencyChange></FrequencyChanges></Clock>\n",FHList1June8-1-1,60,1.0.0.1,1,2004208837,2.0.10.242,2.0.10.242,9/5/2012,9/5/2012 20:18,13:18:34,2.0.10.147,1,CV,1,2,1,ListProc,ConditionList,74,vumutavumuta,vuvumuta,vumvumuta,5,3,3,big glass,glasses,glasses,glass,vuvumuta,vumvumuta,vuvumuta,vumutavumuta,vumuta,52,5,1,3,1,TrialProc,Plural,1,vumutavumuta,TrialList1,1,1,"-999,999",17,424723,0,1,1790,426513,52,1,74
FHList1June8,1,1,"<?xml version=""1.0""?>\n<Clock xmlns:dt=""urn:schemas-microsoft-com:datatypes""><Description dt:dt=""string"">E-Prime Primary Realtime Clock</Description><StartTime><Timestamp dt:dt=""int"">0</Timestamp><DateUtc dt:dt=""string"">2012-09-05T20:18:34Z</DateUtc></StartTime><FrequencyChanges><FrequencyChange><Frequency dt:dt=""r8"">3399980000</Frequency><Timestamp dt:dt=""r8"">1251152450007</Timestamp><Current dt:dt=""r8"">0</Current><DateUtc dt:dt=""string"">2012-09-05T20:18:34Z</DateUtc></FrequencyChange></FrequencyChanges></Clock>\n",FHList1June8-1-1,60,1.0.0.1,1,2004208837,2.0.10.242,2.0.10.242,9/5/2012,9/5/2012 20:18,13:18:34,2.0.10.147,1,CV,1,2,1,ListProc,ConditionList,75,nenenulu,nenulunenulu,nennenulu,5,1,1,big moon,moons,moons,moon,nenenulu,nennenulu,nenenulu,nenulunenulu,nenulu,54,1,5,3,3,TrialProc,Plural,3,nenulunenulu,TrialList1,1,3,"-999,999",1,429040,0,3,2288,431328,54,1,75
FHList1June8,1,1,"<?xml version=""1.0""?>\n<Clock xmlns:dt=""urn:schemas-microsoft-com:datatypes""><Description dt:dt=""string"">E-Prime Primary Realtime Clock</Description><StartTime><Timestamp dt:dt=""int"">0</Timestamp><DateUtc dt:dt=""string"">2012-09-05T20:18:34Z</DateUtc></StartTime><FrequencyChanges><FrequencyChange><Frequency dt:dt=""r8"">3399980000</Frequency><Timestamp dt:dt=""r8"">1251152450007</Timestamp><Current dt:dt=""r8"">0</Current><DateUtc dt:dt=""string"">2012-09-05T20:18:34Z</DateUtc></FrequencyChange></FrequencyChanges></Clock>\n",FHList1June8-1-1,60,1.0.0.1,1,2004208837,2.0.10.242,2.0.10.242,9/5/2012,9/5/2012 20:18,13:18:34,2.0.10.147,1,CV,1,2,1,ListProc,ConditionList,76,jajatoku,jatjatoku,jatokujatoku,3,1,1,big log,logs,big log,log,jajatoku,jatjatoku,jajatoku,jatokujatoku,jatoku,139,1,3,5,5,TrialProc,Big,1,jajatoku,TrialList1,1,1,"-999,999",17,433873,0,1,2173,436046,139,1,76
FHList1June8,1,1,"<?xml version=""1.0""?>\n<Clock xmlns:dt=""urn:schemas-microsoft-com:datatypes""><Description dt:dt=""string"">E-Prime Primary Realtime Clock</Description><StartTime><Timestamp dt:dt=""int"">0</Timestamp><DateUtc dt:dt=""string"">2012-09-05T20:18:34Z</DateUtc></StartTime><FrequencyChanges><FrequencyChange><Frequency dt:dt=""r8"">3399980000</Frequency><Timestamp dt:dt=""r8"">1251152450007</Timestamp><Current dt:dt=""r8"">0</Current><DateUtc dt:dt=""string"">2012-09-05T20:18:34Z</DateUtc></FrequencyChange></FrequencyChanges></Clock>\n",FHList1June8-1-1,60,1.0.0.1,1,2004208837,2.0.10.242,2.0.10.242,9/5/2012,9/5/2012 20:18,13:18:34,2.0.10.147,1,CV,1,2,1,ListProc,ConditionList,77,kakamuta,kamkamuta,kamutakamuta,3,1,1,big paper,papers,papers,paper,kakamuta,kamkamuta,kakamuta,kamutakamuta,kamuta,25,1,3,5,5,TrialProc,Plural,5,kamutakamuta,TrialList1,1,5,"-999,999",2,438591,0,5,1519,440110,25,1,77
FHList1June8,1,1,"<?xml version=""1.0""?>\n<Clock xmlns:dt=""urn:schemas-microsoft-com:datatypes""><Description dt:dt=""string"">E-Prime Primary Realtime Clock</Description><StartTime><Timestamp dt:dt=""int"">0</Timestamp><DateUtc dt:dt=""string"">2012-09-05T20:18:34Z</DateUtc></StartTime><FrequencyChanges><FrequencyChange><Frequency dt:dt=""r8"">3399980000</Frequency><Timestamp dt:dt=""r8"">1251152450007</Timestamp><Current dt:dt=""r8"">0</Current><DateUtc dt:dt=""string"">2012-09-05T20:18:34Z</DateUtc></FrequencyChange></FrequencyChanges></Clock>\n",FHList1June8-1-1,60,1.0.0.1,1,2004208837,2.0.10.242,2.0.10.242,9/5/2012,9/5/2012 20:18,13:18:34,2.0.10.147,1,CV,1,2,1,ListProc,ConditionList,78,nawitanawita,nanawita,nawnawita,5,3,3,big boat,boats,big boat,boat,nanawita,nawnawita,nanawita,nawitanawita,nawita,112,5,1,3,1,TrialProc,Big,3,nanawita,TrialList1,1,3,"-999,999",15,442656,0,3,2266,444922,112,1,78
FHList1June8,1,1,"<?xml version=""1.0""?>\n<Clock xmlns:dt=""urn:schemas-microsoft-com:datatypes""><Description dt:dt=""string"">E-Prime Primary Realtime Clock</Description><StartTime><Timestamp dt:dt=""int"">0</Timestamp><DateUtc dt:dt=""string"">2012-09-05T20:18:34Z</DateUtc></StartTime><FrequencyChanges><FrequencyChange><Frequency dt:dt=""r8"">3399980000</Frequency><Timestamp dt:dt=""r8"">1251152450007</Timestamp><Current dt:dt=""r8"">0</Current><DateUtc dt:dt=""string"">2012-09-05T20:18:34Z</DateUtc></FrequencyChange></FrequencyChanges></Clock>\n",FHList1June8-1-1,60,1.0.0.1,1,2004208837,2.0.10.242,2.0.10.242,9/5/2012,9/5/2012 20:18,13:18:34,2.0.10.147,1,CV,1,2,1,ListProc,ConditionList,79,hitvusahitvusa,hithitvusa,hihitvusa,3,5,3,big nail,nails,nails,nail,hihitvusa,hithitvusa,hithitvusa,hitvusahitvusa,hitvusa,47,5,3,1,1,TrialProc,Plural,1,hitvusahitvusa,TrialList1,1,1,"-999,999",17,447473,0,1,1193,448666,47,1,79
FHList1June8,1,1,"<?xml version=""1.0""?>\n<Clock xmlns:dt=""urn:schemas-microsoft-com:datatypes""><Description dt:dt=""string"">E-Prime Primary Realtime Clock</Description><StartTime><Timestamp dt:dt=""int"">0</Timestamp><DateUtc dt:dt=""string"">2012-09-05T20:18:34Z</DateUtc></StartTime><FrequencyChanges><FrequencyChange><Frequency dt:dt=""r8"">3399980000</Frequency><Timestamp dt:dt=""r8"">1251152450007</Timestamp><Current dt:dt=""r8"">0</Current><DateUtc dt:dt=""string"">2012-09-05T20:18:34Z</DateUtc></FrequencyChange></FrequencyChanges></Clock>\n",FHList1June8-1-1,60,1.0.0.1,1,2004208837,2.0.10.242,2.0.10.242,9/5/2012,9/5/2012 20:18,13:18:34,2.0.10.147,1,CV,1,2,1,ListProc,ConditionList,80,tatakhatu,taktakhatu,takhatutakhatu,3,1,3,big house,houses,houses,house,tatakhatu,taktakhatu,taktakhatu,takhatutakhatu,takhatu,13,1,3,5,5,TrialProc,Plural,5,takhatutakhatu,TrialList1,1,5,"-999,999",1,451207,0,5,1059,452266,13,1,80
FHList1June8,1,1,"<?xml version=""1.0""?>\n<Clock xmlns:dt=""urn:schemas-microsoft-com:datatypes""><Description dt:dt=""string"">E-Prime Primary Realtime Clock</Description><StartTime><Timestamp dt:dt=""int"">0</Timestamp><DateUtc dt:dt=""string"">2012-09-05T20:18:34Z</DateUtc></StartTime><FrequencyChanges><FrequencyChange><Frequency dt:dt=""r8"">3399980000</Frequency><Timestamp dt:dt=""r8"">1251152450007</Timestamp><Current dt:dt=""r8"">0</Current><DateUtc dt:dt=""string"">2012-09-05T20:18:34Z</DateUtc></FrequencyChange></FrequencyChanges></Clock>\n",FHList1June8-1-1,60,1.0.0.1,1,2004208837,2.0.10.242,2.0.10.242,9/5/2012,9/5/2012 20:18,13:18:34,2.0.10.147,1,CV,1,2,1,ListProc,ConditionList,81,wowomtotu,womwomtotu,womtotuwomtotu,3,1,3,big man,men,men,man,wowomtotu,womwomtotu,womwomtotu,womtotuwomtotu,womtotu,7,1,3,5,5,TrialProc,Plural,5,womtotuwomtotu,TrialList1,1,5,"-999,999",17,454823,0,5,1624,456447,7,1,81
FHList1June8,1,1,"<?xml version=""1.0""?>\n<Clock xmlns:dt=""urn:schemas-microsoft-com:datatypes""><Description dt:dt=""string"">E-Prime Primary Realtime Clock</Description><StartTime><Timestamp dt:dt=""int"">0</Timestamp><DateUtc dt:dt=""string"">2012-09-05T20:18:34Z</DateUtc></StartTime><FrequencyChanges><FrequencyChange><Frequency dt:dt=""r8"">3399980000</Frequency><Timestamp dt:dt=""r8"">1251152450007</Timestamp><Current dt:dt=""r8"">0</Current><DateUtc dt:dt=""string"">2012-09-05T20:18:34Z</DateUtc></FrequencyChange></FrequencyChanges></Clock>\n",FHList1June8-1-1,60,1.0.0.1,1,2004208837,2.0.10.242,2.0.10.242,9/5/2012,9/5/2012 20:18,13:18:34,2.0.10.147,1,CV,1,2,1,ListProc,ConditionList,82,sibitasibita,sibsibita,sisibita,3,5,5,big board,boards,big board,board,sisibita,sibsibita,sisibita,sibitasibita,sibita,149,5,3,1,1,TrialProc,Big,5,sisibita,TrialList1,0,5,"-999,999",1,458990,0,1,2171,461161,149,1,82
FHList1June8,1,1,"<?xml version=""1.0""?>\n<Clock xmlns:dt=""urn:schemas-microsoft-com:datatypes""><Description dt:dt=""string"">E-Prime Primary Realtime Clock</Description><StartTime><Timestamp dt:dt=""int"">0</Timestamp><DateUtc dt:dt=""string"">2012-09-05T20:18:34Z</DateUtc></StartTime><FrequencyChanges><FrequencyChange><Frequency dt:dt=""r8"">3399980000</Frequency><Timestamp dt:dt=""r8"">1251152450007</Timestamp><Current dt:dt=""r8"">0</Current><DateUtc dt:dt=""string"">2012-09-05T20:18:34Z</DateUtc></FrequencyChange></FrequencyChanges></Clock>\n",FHList1June8-1-1,60,1.0.0.1,1,2004208837,2.0.10.242,2.0.10.242,9/5/2012,9/5/2012 20:18,13:18:34,2.0.10.147,1,CV,1,2,1,ListProc,ConditionList,83,vavamrulu,vamruluvamrulu,vamvamrulu,5,1,5,big brush,brushes,big brush,brush,vavamrulu,vamvamrulu,vamvamrulu,vamruluvamrulu,vamrulu,78,1,5,3,3,TrialProc,Big,1,vavamrulu,TrialList1,1,1,"-999,999",1,463707,0,1,3115,466822,78,1,83
FHList1June8,1,1,"<?xml version=""1.0""?>\n<Clock xmlns:dt=""urn:schemas-microsoft-com:datatypes""><Description dt:dt=""string"">E-Prime Primary Realtime Clock</Description><StartTime><Timestamp dt:dt=""int"">0</Timestamp><DateUtc dt:dt=""string"">2012-09-05T20:18:34Z</DateUtc></StartTime><FrequencyChanges><FrequencyChange><Frequency dt:dt=""r8"">3399980000</Frequency><Timestamp dt:dt=""r8"">1251152450007</Timestamp><Current dt:dt=""r8"">0</Current><DateUtc dt:dt=""string"">2012-09-05T20:18:34Z</DateUtc></FrequencyChange></FrequencyChanges></Clock>\n",FHList1June8-1-1,60,1.0.0.1,1,2004208837,2.0.10.242,2.0.10.242,9/5/2012,9/5/2012 20:18,13:18:34,2.0.10.147,1,CV,1,2,1,ListProc,ConditionList,84,tataltolu,taltolutaltolu,taltaltolu,5,1,5,big rope,ropes,ropes,rope,tataltolu,taltaltolu,taltaltolu,taltolutaltolu,taltolu,30,1,5,3,3,TrialProc,Plural,3,taltolutaltolu,TrialList1,1,3,"-999,999",1,469357,0,3,1980,471337,30,1,84
FHList1June8,1,1,"<?xml version=""1.0""?>\n<Clock xmlns:dt=""urn:schemas-microsoft-com:datatypes""><Description dt:dt=""string"">E-Prime Primary Realtime Clock</Description><StartTime><Timestamp dt:dt=""int"">0</Timestamp><DateUtc dt:dt=""string"">2012-09-05T20:18:34Z</DateUtc></StartTime><FrequencyChanges><FrequencyChange><Frequency dt:dt=""r8"">3399980000</Frequency><Timestamp dt:dt=""r8"">1251152450007</Timestamp><Current dt:dt=""r8"">0</Current><DateUtc dt:dt=""string"">2012-09-05T20:18:34Z</DateUtc></FrequencyChange></FrequencyChanges></Clock>\n",FHList1June8-1-1,60,1.0.0.1,1,2004208837,2.0.10.242,2.0.10.242,9/5/2012,9/5/2012 20:18,13:18:34,2.0.10.147,1,CV,1,2,1,ListProc,ConditionList,85,vehvehawa,vevehawa,vehawavehawa,1,3,3,big woman,women,women,woman,vevehawa,vehvehawa,vevehawa,vehawavehawa,vehawa,8,3,1,5,5,TrialProc,Plural,5,vehawavehawa,TrialList1,1,5,"-999,999",16,473889,0,5,1810,475699,8,1,85
FHList1June8,1,1,"<?xml version=""1.0""?>\n<Clock xmlns:dt=""urn:schemas-microsoft-com:datatypes""><Description dt:dt=""string"">E-Prime Primary Realtime Clock</Description><StartTime><Timestamp dt:dt=""int"">0</Timestamp><DateUtc dt:dt=""string"">2012-09-05T20:18:34Z</DateUtc></StartTime><FrequencyChanges><FrequencyChange><Frequency dt:dt=""r8"">3399980000</Frequency><Timestamp dt:dt=""r8"">1251152450007</Timestamp><Current dt:dt=""r8"">0</Current><DateUtc dt:dt=""string"">2012-09-05T20:18:34Z</DateUtc></FrequencyChange></FrequencyChanges></Clock>\n",FHList1June8-1-1,60,1.0.0.1,1,2004208837,2.0.10.242,2.0.10.242,9/5/2012,9/5/2012 20:18,13:18:34,2.0.10.147,1,CV,1,2,1,ListProc,ConditionList,86,hihimulu,himhimulu,himuluhimulu,3,1,1,big paddle,paddles,big paddle,paddle,hihimulu,himhimulu,hihimulu,himuluhimulu,himulu,145,1,3,5,5,TrialProc,Big,1,hihimulu,TrialList1,1,1,"-999,999",16,478239,0,1,2553,480792,145,1,86
FHList1June8,1,1,"<?xml version=""1.0""?>\n<Clock xmlns:dt=""urn:schemas-microsoft-com:datatypes""><Description dt:dt=""string"">E-Prime Primary Realtime Clock</Description><StartTime><Timestamp dt:dt=""int"">0</Timestamp><DateUtc dt:dt=""string"">2012-09-05T20:18:34Z</DateUtc></StartTime><FrequencyChanges><FrequencyChange><Frequency dt:dt=""r8"">3399980000</Frequency><Timestamp dt:dt=""r8"">1251152450007</Timestamp><Current dt:dt=""r8"">0</Current><DateUtc dt:dt=""string"">2012-09-05T20:18:34Z</DateUtc></FrequencyChange></FrequencyChanges></Clock>\n",FHList1June8-1-1,60,1.0.0.1,1,2004208837,2.0.10.242,2.0.10.242,9/5/2012,9/5/2012 20:18,13:18:34,2.0.10.147,1,CV,1,2,1,ListProc,ConditionList,87,tatabisa,tabtabisa,tabisatabisa,3,1,1,big net,nets,nets,net,tatabisa,tabtabisa,tatabisa,tabisatabisa,tabisa,73,1,3,5,5,TrialProc,Plural,5,tabisatabisa,TrialList1,1,5,"-999,999",16,483339,0,5,1211,484550,73,1,87
FHList1June8,1,1,"<?xml version=""1.0""?>\n<Clock xmlns:dt=""urn:schemas-microsoft-com:datatypes""><Description dt:dt=""string"">E-Prime Primary Realtime Clock</Description><StartTime><Timestamp dt:dt=""int"">0</Timestamp><DateUtc dt:dt=""string"">2012-09-05T20:18:34Z</DateUtc></StartTime><FrequencyChanges><FrequencyChange><Frequency dt:dt=""r8"">3399980000</Frequency><Timestamp dt:dt=""r8"">1251152450007</Timestamp><Current dt:dt=""r8"">0</Current><DateUtc dt:dt=""string"">2012-09-05T20:18:34Z</DateUtc></FrequencyChange></FrequencyChanges></Clock>\n",FHList1June8-1-1,60,1.0.0.1,1,2004208837,2.0.10.242,2.0.10.242,9/5/2012,9/5/2012 20:18,13:18:34,2.0.10.147,1,CV,1,2,1,ListProc,ConditionList,88,talwipatalwipa,taltalwipa,tatalwipa,3,5,3,big button,buttons,buttons,button,tatalwipa,taltalwipa,taltalwipa,talwipatalwipa,talwipa,11,5,3,1,1,TrialProc,Plural,1,talwipatalwipa,TrialList1,1,1,"-999,999",2,487091,0,1,1439,488530,11,1,88
FHList1June8,1,1,"<?xml version=""1.0""?>\n<Clock xmlns:dt=""urn:schemas-microsoft-com:datatypes""><Description dt:dt=""string"">E-Prime Primary Realtime Clock</Description><StartTime><Timestamp dt:dt=""int"">0</Timestamp><DateUtc dt:dt=""string"">2012-09-05T20:18:34Z</DateUtc></StartTime><FrequencyChanges><FrequencyChange><Frequency dt:dt=""r8"">3399980000</Frequency><Timestamp dt:dt=""r8"">1251152450007</Timestamp><Current dt:dt=""r8"">0</Current><DateUtc dt:dt=""string"">2012-09-05T20:18:34Z</DateUtc></FrequencyChange></FrequencyChanges></Clock>\n",FHList1June8-1-1,60,1.0.0.1,1,2004208837,2.0.10.242,2.0.10.242,9/5/2012,9/5/2012 20:18,13:18:34,2.0.10.147,1,CV,1,2,1,ListProc,ConditionList,89,talmotatalmota,taltalmota,tatalmota,3,5,3,big rock,rocks,rocks,rock,tatalmota,taltalmota,taltalmota,talmotatalmota,talmota,5,5,3,1,1,TrialProc,Plural,1,talmotatalmota,TrialList1,1,1,"-999,999",16,491089,0,1,1436,492525,5,1,89
FHList1June8,1,1,"<?xml version=""1.0""?>\n<Clock xmlns:dt=""urn:schemas-microsoft-com:datatypes""><Description dt:dt=""string"">E-Prime Primary Realtime Clock</Description><StartTime><Timestamp dt:dt=""int"">0</Timestamp><DateUtc dt:dt=""string"">2012-09-05T20:18:34Z</DateUtc></StartTime><FrequencyChanges><FrequencyChange><Frequency dt:dt=""r8"">3399980000</Frequency><Timestamp dt:dt=""r8"">1251152450007</Timestamp><Current dt:dt=""r8"">0</Current><DateUtc dt:dt=""string"">2012-09-05T20:18:34Z</DateUtc></FrequencyChange></FrequencyChanges></Clock>\n",FHList1June8-1-1,60,1.0.0.1,1,2004208837,2.0.10.242,2.0.10.242,9/5/2012,9/5/2012 20:18,13:18:34,2.0.10.147,1,CV,1,2,1,ListProc,ConditionList,90,womwomwilu,womwiluwomwilu,wowomwilu,1,5,1,big foot,feet,feet,foot,wowomwilu,womwomwilu,womwomwilu,womwiluwomwilu,womwilu,57,3,5,1,3,TrialProc,Plural,3,womwiluwomwilu,TrialList1,1,3,"-999,999",15,495056,0,3,1573,496629,57,1,90
FHList1June8,1,1,"<?xml version=""1.0""?>\n<Clock xmlns:dt=""urn:schemas-microsoft-com:datatypes""><Description dt:dt=""string"">E-Prime Primary Realtime Clock</Description><StartTime><Timestamp dt:dt=""int"">0</Timestamp><DateUtc dt:dt=""string"">2012-09-05T20:18:34Z</DateUtc></StartTime><FrequencyChanges><FrequencyChange><Frequency dt:dt=""r8"">3399980000</Frequency><Timestamp dt:dt=""r8"">1251152450007</Timestamp><Current dt:dt=""r8"">0</Current><DateUtc dt:dt=""string"">2012-09-05T20:18:34Z</DateUtc></FrequencyChange></FrequencyChanges></Clock>\n",FHList1June8-1-1,60,1.0.0.1,1,2004208837,2.0.10.242,2.0.10.242,9/5/2012,9/5/2012 20:18,13:18:34,2.0.10.147,1,CV,1,2,1,ListProc,ConditionList,91,balbalwipa,balwipabalwipa,babalwipa,1,5,1,big canyon,canyons,canyons,canyon,babalwipa,balbalwipa,balbalwipa,balwipabalwipa,balwipa,45,3,5,1,3,TrialProc,Plural,3,balwipabalwipa,TrialList1,1,3,"-999,999",16,499189,0,3,1397,500586,45,1,91
FHList1June8,1,1,"<?xml version=""1.0""?>\n<Clock xmlns:dt=""urn:schemas-microsoft-com:datatypes""><Description dt:dt=""string"">E-Prime Primary Realtime Clock</Description><StartTime><Timestamp dt:dt=""int"">0</Timestamp><DateUtc dt:dt=""string"">2012-09-05T20:18:34Z</DateUtc></StartTime><FrequencyChanges><FrequencyChange><Frequency dt:dt=""r8"">3399980000</Frequency><Timestamp dt:dt=""r8"">1251152450007</Timestamp><Current dt:dt=""r8"">0</Current><DateUtc dt:dt=""string"">2012-09-05T20:18:34Z</DateUtc></FrequencyChange></FrequencyChanges></Clock>\n",FHList1June8-1-1,60,1.0.0.1,1,2004208837,2.0.10.242,2.0.10.242,9/5/2012,9/5/2012 20:18,13:18:34,2.0.10.147,1,CV,1,2,1,ListProc,ConditionList,92,hehewisa,hewisahewisa,hewhewisa,5,1,1,big wing,wings,wings,wing,hehewisa,hewhewisa,hehewisa,hewisahewisa,hewisa,66,1,5,3,3,TrialProc,Plural,3,hewisahewisa,TrialList1,1,3,"-999,999",16,503139,0,3,1573,504712,66,1,92
FHList1June8,1,1,"<?xml version=""1.0""?>\n<Clock xmlns:dt=""urn:schemas-microsoft-com:datatypes""><Description dt:dt=""string"">E-Prime Primary Realtime Clock</Description><StartTime><Timestamp dt:dt=""int"">0</Timestamp><DateUtc dt:dt=""string"">2012-09-05T20:18:34Z</DateUtc></StartTime><FrequencyChanges><FrequencyChange><Frequency dt:dt=""r8"">3399980000</Frequency><Timestamp dt:dt=""r8"">1251152450007</Timestamp><Current dt:dt=""r8"">0</Current><DateUtc dt:dt=""string"">2012-09-05T20:18:34Z</DateUtc></FrequencyChange></FrequencyChanges></Clock>\n",FHList1June8-1-1,60,1.0.0.1,1,2004208837,2.0.10.242,2.0.10.242,9/5/2012,9/5/2012 20:18,13:18:34,2.0.10.147,1,CV,1,2,1,ListProc,ConditionList,93,kotokukotoku,kokotoku,kotkotoku,5,3,3,big bone,bones,bones,bone,kokotoku,kotkotoku,kokotoku,kotokukotoku,kotoku,46,5,1,3,1,TrialProc,Plural,1,kotokukotoku,TrialList1,1,1,"-999,999",2,507258,0,1,1904,509162,46,1,93
FHList1June8,1,1,"<?xml version=""1.0""?>\n<Clock xmlns:dt=""urn:schemas-microsoft-com:datatypes""><Description dt:dt=""string"">E-Prime Primary Realtime Clock</Description><StartTime><Timestamp dt:dt=""int"">0</Timestamp><DateUtc dt:dt=""string"">2012-09-05T20:18:34Z</DateUtc></StartTime><FrequencyChanges><FrequencyChange><Frequency dt:dt=""r8"">3399980000</Frequency><Timestamp dt:dt=""r8"">1251152450007</Timestamp><Current dt:dt=""r8"">0</Current><DateUtc dt:dt=""string"">2012-09-05T20:18:34Z</DateUtc></FrequencyChange></FrequencyChanges></Clock>\n",FHList1June8-1-1,60,1.0.0.1,1,2004208837,2.0.10.242,2.0.10.242,9/5/2012,9/5/2012 20:18,13:18:34,2.0.10.147,1,CV,1,2,1,ListProc,ConditionList,94,wakotawakota,wakwakota,wawakota,3,5,5,big bush,bushes,bushes,bush,wawakota,wakwakota,wawakota,wakotawakota,wakota,71,5,3,1,1,TrialProc,Plural,1,wakotawakota,TrialList1,1,1,"-999,999",16,511706,0,1,1337,513043,71,1,94
FHList1June8,1,1,"<?xml version=""1.0""?>\n<Clock xmlns:dt=""urn:schemas-microsoft-com:datatypes""><Description dt:dt=""string"">E-Prime Primary Realtime Clock</Description><StartTime><Timestamp dt:dt=""int"">0</Timestamp><DateUtc dt:dt=""string"">2012-09-05T20:18:34Z</DateUtc></StartTime><FrequencyChanges><FrequencyChange><Frequency dt:dt=""r8"">3399980000</Frequency><Timestamp dt:dt=""r8"">1251152450007</Timestamp><Current dt:dt=""r8"">0</Current><DateUtc dt:dt=""string"">2012-09-05T20:18:34Z</DateUtc></FrequencyChange></FrequencyChanges></Clock>\n",FHList1June8-1-1,60,1.0.0.1,1,2004208837,2.0.10.242,2.0.10.242,9/5/2012,9/5/2012 20:18,13:18:34,2.0.10.147,1,CV,1,2,1,ListProc,ConditionList,95,hithitsalu,hitsaluhitsalu,hihitsalu,1,5,1,big pillar,pillars,big pillar,pillar,hihitsalu,hithitsalu,hithitsalu,hitsaluhitsalu,hitsalu,117,3,5,1,3,TrialProc,Big,5,hihitsalu,TrialList1,1,5,"-999,999",16,515606,0,5,2251,517857,117,1,95
FHList1June8,1,1,"<?xml version=""1.0""?>\n<Clock xmlns:dt=""urn:schemas-microsoft-com:datatypes""><Description dt:dt=""string"">E-Prime Primary Realtime Clock</Description><StartTime><Timestamp dt:dt=""int"">0</Timestamp><DateUtc dt:dt=""string"">2012-09-05T20:18:34Z</DateUtc></StartTime><FrequencyChanges><FrequencyChange><Frequency dt:dt=""r8"">3399980000</Frequency><Timestamp dt:dt=""r8"">1251152450007</Timestamp><Current dt:dt=""r8"">0</Current><DateUtc dt:dt=""string"">2012-09-05T20:18:34Z</DateUtc></FrequencyChange></FrequencyChanges></Clock>\n",FHList1June8-1-1,60,1.0.0.1,1,2004208837,2.0.10.242,2.0.10.242,9/5/2012,9/5/2012 20:18,13:18:34,2.0.10.147,1,CV,1,2,1,ListProc,ConditionList,96,kakalbita,kalbitakalbita,kalkalbita,5,1,5,big arrow,arrows,big arrow,arrow,kakalbita,kalkalbita,kalkalbita,kalbitakalbita,kalbita,90,1,5,3,3,TrialProc,Big,1,kakalbita,TrialList1,1,1,"-999,999",16,520406,0,1,2542,522948,90,1,96
FHList1June8,1,1,"<?xml version=""1.0""?>\n<Clock xmlns:dt=""urn:schemas-microsoft-com:datatypes""><Description dt:dt=""string"">E-Prime Primary Realtime Clock</Description><StartTime><Timestamp dt:dt=""int"">0</Timestamp><DateUtc dt:dt=""string"">2012-09-05T20:18:34Z</DateUtc></StartTime><FrequencyChanges><FrequencyChange><Frequency dt:dt=""r8"">3399980000</Frequency><Timestamp dt:dt=""r8"">1251152450007</Timestamp><Current dt:dt=""r8"">0</Current><DateUtc dt:dt=""string"">2012-09-05T20:18:34Z</DateUtc></FrequencyChange></FrequencyChanges></Clock>\n",FHList1June8-1-1,60,1.0.0.1,1,2004208837,2.0.10.242,2.0.10.242,9/5/2012,9/5/2012 20:18,13:18:34,2.0.10.147,1,CV,1,2,1,ListProc,ConditionList,97,balnukabalnuka,balbalnuka,babalnuka,3,5,3,big key,keys,keys,key,babalnuka,balbalnuka,balbalnuka,balnukabalnuka,balnuka,41,5,3,1,1,TrialProc,Plural,1,balnukabalnuka,TrialList1,1,1,"-999,999",17,525490,0,1,1043,526533,41,1,97
FHList1June8,1,1,"<?xml version=""1.0""?>\n<Clock xmlns:dt=""urn:schemas-microsoft-com:datatypes""><Description dt:dt=""string"">E-Prime Primary Realtime Clock</Description><StartTime><Timestamp dt:dt=""int"">0</Timestamp><DateUtc dt:dt=""string"">2012-09-05T20:18:34Z</DateUtc></StartTime><FrequencyChanges><FrequencyChange><Frequency dt:dt=""r8"">3399980000</Frequency><Timestamp dt:dt=""r8"">1251152450007</Timestamp><Current dt:dt=""r8"">0</Current><DateUtc dt:dt=""string"">2012-09-05T20:18:34Z</DateUtc></FrequencyChange></FrequencyChanges></Clock>\n",FHList1June8-1-1,60,1.0.0.1,1,2004208837,2.0.10.242,2.0.10.242,9/5/2012,9/5/2012 20:18,13:18:34,2.0.10.147,1,CV,1,2,1,ListProc,ConditionList,98,taltaltopa,taltopataltopa,tataltopa,1,5,1,big statue,statues,big statue,statue,tataltopa,taltaltopa,taltaltopa,taltopataltopa,taltopa,129,3,5,1,3,TrialProc,Big,5,tataltopa,TrialList1,1,5,"-999,999",17,529090,0,5,2313,531403,129,1,98
FHList1June8,1,1,"<?xml version=""1.0""?>\n<Clock xmlns:dt=""urn:schemas-microsoft-com:datatypes""><Description dt:dt=""string"">E-Prime Primary Realtime Clock</Description><StartTime><Timestamp dt:dt=""int"">0</Timestamp><DateUtc dt:dt=""string"">2012-09-05T20:18:34Z</DateUtc></StartTime><FrequencyChanges><FrequencyChange><Frequency dt:dt=""r8"">3399980000</Frequency><Timestamp dt:dt=""r8"">1251152450007</Timestamp><Current dt:dt=""r8"">0</Current><DateUtc dt:dt=""string"">2012-09-05T20:18:34Z</DateUtc></FrequencyChange></FrequencyChanges></Clock>\n",FHList1June8-1-1,60,1.0.0.1,1,2004208837,2.0.10.242,2.0.10.242,9/5/2012,9/5/2012 20:18,13:18:34,2.0.10.147,1,CV,1,2,1,ListProc,ConditionList,99,wowomtolu,womwomtolu,womtoluwomtolu,3,1,3,big stick,sticks,big stick,stick,wowomtolu,womwomtolu,womwomtolu,womtoluwomtolu,womtolu,115,1,3,5,5,TrialProc,Big,1,wowomtolu,TrialList1,1,1,"-999,999",16,533956,0,1,2209,536165,115,1,99
FHList1June8,1,1,"<?xml version=""1.0""?>\n<Clock xmlns:dt=""urn:schemas-microsoft-com:datatypes""><Description dt:dt=""string"">E-Prime Primary Realtime Clock</Description><StartTime><Timestamp dt:dt=""int"">0</Timestamp><DateUtc dt:dt=""string"">2012-09-05T20:18:34Z</DateUtc></StartTime><FrequencyChanges><FrequencyChange><Frequency dt:dt=""r8"">3399980000</Frequency><Timestamp dt:dt=""r8"">1251152450007</Timestamp><Current dt:dt=""r8"">0</Current><DateUtc dt:dt=""string"">2012-09-05T20:18:34Z</DateUtc></FrequencyChange></FrequencyChanges></Clock>\n",FHList1June8-1-1,60,1.0.0.1,1,2004208837,2.0.10.242,2.0.10.242,9/5/2012,9/5/2012 20:18,13:18:34,2.0.10.147,1,CV,1,2,1,ListProc,ConditionList,100,vusvusata,vuvusata,vusatavusata,1,3,3,big feather,feathers,feathers,feather,vuvusata,vusvusata,vuvusata,vusatavusata,vusata,38,3,1,5,5,TrialProc,Plural,5,vusatavusata,TrialList1,1,5,"-999,999",17,538723,0,5,1476,540199,38,1,100
FHList1June8,1,1,"<?xml version=""1.0""?>\n<Clock xmlns:dt=""urn:schemas-microsoft-com:datatypes""><Description dt:dt=""string"">E-Prime Primary Realtime Clock</Description><StartTime><Timestamp dt:dt=""int"">0</Timestamp><DateUtc dt:dt=""string"">2012-09-05T20:18:34Z</DateUtc></StartTime><FrequencyChanges><FrequencyChange><Frequency dt:dt=""r8"">3399980000</Frequency><Timestamp dt:dt=""r8"">1251152450007</Timestamp><Current dt:dt=""r8"">0</Current><DateUtc dt:dt=""string"">2012-09-05T20:18:34Z</DateUtc></FrequencyChange></FrequencyChanges></Clock>\n",FHList1June8-1-1,60,1.0.0.1,1,2004208837,2.0.10.242,2.0.10.242,9/5/2012,9/5/2012 20:18,13:18:34,2.0.10.147,1,CV,1,2,1,ListProc,ConditionList,101,hehemusa,hemusahemusa,hemhemusa,5,1,1,big snake,snakes,snakes,snake,hehemusa,hemhemusa,hehemusa,hemusahemusa,hemusa,48,1,5,3,3,TrialProc,Plural,3,hemusahemusa,TrialList1,1,3,"-999,999",17,542740,0,3,1580,544320,48,1,101
FHList1June8,1,1,"<?xml version=""1.0""?>\n<Clock xmlns:dt=""urn:schemas-microsoft-com:datatypes""><Description dt:dt=""string"">E-Prime Primary Realtime Clock</Description><StartTime><Timestamp dt:dt=""int"">0</Timestamp><DateUtc dt:dt=""string"">2012-09-05T20:18:34Z</DateUtc></StartTime><FrequencyChanges><FrequencyChange><Frequency dt:dt=""r8"">3399980000</Frequency><Timestamp dt:dt=""r8"">1251152450007</Timestamp><Current dt:dt=""r8"">0</Current><DateUtc dt:dt=""string"">2012-09-05T20:18:34Z</DateUtc></FrequencyChange></FrequencyChanges></Clock>\n",FHList1June8-1-1,60,1.0.0.1,1,2004208837,2.0.10.242,2.0.10.242,9/5/2012,9/5/2012 20:18,13:18:34,2.0.10.147,1,CV,1,2,1,ListProc,ConditionList,102,hehewitu,hewituhewitu,hewhewitu,5,1,1,big table,tables,tables,table,hehewitu,hewhewitu,hehewitu,hewituhewitu,hewitu,12,1,5,3,3,TrialProc,Plural,3,hewituhewitu,TrialList1,1,3,"-999,999",1,546857,0,3,1603,548460,12,1,102
FHList1June8,1,1,"<?xml version=""1.0""?>\n<Clock xmlns:dt=""urn:schemas-microsoft-com:datatypes""><Description dt:dt=""string"">E-Prime Primary Realtime Clock</Description><StartTime><Timestamp dt:dt=""int"">0</Timestamp><DateUtc dt:dt=""string"">2012-09-05T20:18:34Z</DateUtc></StartTime><FrequencyChanges><FrequencyChange><Frequency dt:dt=""r8"">3399980000</Frequency><Timestamp dt:dt=""r8"">1251152450007</Timestamp><Current dt:dt=""r8"">0</Current><DateUtc dt:dt=""string"">2012-09-05T20:18:34Z</DateUtc></FrequencyChange></FrequencyChanges></Clock>\n",FHList1June8-1-1,60,1.0.0.1,1,2004208837,2.0.10.242,2.0.10.242,9/5/2012,9/5/2012 20:18,13:18:34,2.0.10.147,1,CV,1,2,1,ListProc,ConditionList,103,hithitoku,hihitoku,hitokuhitoku,1,3,3,big wall,walls,walls,wall,hihitoku,hithitoku,hihitoku,hitokuhitoku,hitoku,14,3,1,5,5,TrialProc,Plural,5,hitokuhitoku,TrialList1,1,5,"-999,999",16,551006,0,5,1339,552345,14,1,103
FHList1June8,1,1,"<?xml version=""1.0""?>\n<Clock xmlns:dt=""urn:schemas-microsoft-com:datatypes""><Description dt:dt=""string"">E-Prime Primary Realtime Clock</Description><StartTime><Timestamp dt:dt=""int"">0</Timestamp><DateUtc dt:dt=""string"">2012-09-05T20:18:34Z</DateUtc></StartTime><FrequencyChanges><FrequencyChange><Frequency dt:dt=""r8"">3399980000</Frequency><Timestamp dt:dt=""r8"">1251152450007</Timestamp><Current dt:dt=""r8"">0</Current><DateUtc dt:dt=""string"">2012-09-05T20:18:34Z</DateUtc></FrequencyChange></FrequencyChanges></Clock>\n",FHList1June8-1-1,60,1.0.0.1,1,2004208837,2.0.10.242,2.0.10.242,9/5/2012,9/5/2012 20:18,13:18:34,2.0.10.147,1,CV,1,2,1,ListProc,ConditionList,104,vavamhalu,vamhaluvamhalu,vamvamhalu,5,1,5,big lever,levers,big lever,lever,vavamhalu,vamvamhalu,vamvamhalu,vamhaluvamhalu,vamhalu,144,1,5,3,3,TrialProc,Big,1,vavamhalu,TrialList1,1,1,"-999,999",17,554890,0,1,1879,556769,144,1,104
FHList1June8,1,1,"<?xml version=""1.0""?>\n<Clock xmlns:dt=""urn:schemas-microsoft-com:datatypes""><Description dt:dt=""string"">E-Prime Primary Realtime Clock</Description><StartTime><Timestamp dt:dt=""int"">0</Timestamp><DateUtc dt:dt=""string"">2012-09-05T20:18:34Z</DateUtc></StartTime><FrequencyChanges><FrequencyChange><Frequency dt:dt=""r8"">3399980000</Frequency><Timestamp dt:dt=""r8"">1251152450007</Timestamp><Current dt:dt=""r8"">0</Current><DateUtc dt:dt=""string"">2012-09-05T20:18:34Z</DateUtc></FrequencyChange></FrequencyChanges></Clock>\n",FHList1June8-1-1,60,1.0.0.1,1,2004208837,2.0.10.242,2.0.10.242,9/5/2012,9/5/2012 20:18,13:18:34,2.0.10.147,1,CV,1,2,1,ListProc,ConditionList,105,vamvamwipa,vamwipavamwipa,vavamwipa,1,5,1,big tree,trees,trees,tree,vavamwipa,vamvamwipa,vamvamwipa,vamwipavamwipa,vamwipa,21,3,5,1,3,TrialProc,Plural,3,vamwipavamwipa,TrialList1,1,3,"-999,999",17,559323,0,3,1170,560493,21,1,105
FHList1June8,1,1,"<?xml version=""1.0""?>\n<Clock xmlns:dt=""urn:schemas-microsoft-com:datatypes""><Description dt:dt=""string"">E-Prime Primary Realtime Clock</Description><StartTime><Timestamp dt:dt=""int"">0</Timestamp><DateUtc dt:dt=""string"">2012-09-05T20:18:34Z</DateUtc></StartTime><FrequencyChanges><FrequencyChange><Frequency dt:dt=""r8"">3399980000</Frequency><Timestamp dt:dt=""r8"">1251152450007</Timestamp><Current dt:dt=""r8"">0</Current><DateUtc dt:dt=""string"">2012-09-05T20:18:34Z</DateUtc></FrequencyChange></FrequencyChanges></Clock>\n",FHList1June8-1-1,60,1.0.0.1,1,2004208837,2.0.10.242,2.0.10.242,9/5/2012,9/5/2012 20:18,13:18:34,2.0.10.147,1,CV,1,2,1,ListProc,ConditionList,106,hikotahikota,hihikota,hikhikota,5,3,3,big cactus,cacti,cacti,cactus,hihikota,hikhikota,hihikota,hikotahikota,hikota,40,5,1,3,1,TrialProc,Plural,1,hikotahikota,TrialList1,1,1,"-999,999",16,563056,0,1,1472,564528,40,1,106
FHList1June8,1,1,"<?xml version=""1.0""?>\n<Clock xmlns:dt=""urn:schemas-microsoft-com:datatypes""><Description dt:dt=""string"">E-Prime Primary Realtime Clock</Description><StartTime><Timestamp dt:dt=""int"">0</Timestamp><DateUtc dt:dt=""string"">2012-09-05T20:18:34Z</DateUtc></StartTime><FrequencyChanges><FrequencyChange><Frequency dt:dt=""r8"">3399980000</Frequency><Timestamp dt:dt=""r8"">1251152450007</Timestamp><Current dt:dt=""r8"">0</Current><DateUtc dt:dt=""string"">2012-09-05T20:18:34Z</DateUtc></FrequencyChange></FrequencyChanges></Clock>\n",FHList1June8-1-1,60,1.0.0.1,1,2004208837,2.0.10.242,2.0.10.242,9/5/2012,9/5/2012 20:18,13:18:34,2.0.10.147,1,CV,1,2,1,ListProc,ConditionList,107,kumkumsolu,kukumsolu,kumsolukumsolu,1,3,1,big fish,fishes,fishes,fish,kukumsolu,kumkumsolu,kumkumsolu,kumsolukumsolu,kumsolu,74,3,1,5,5,TrialProc,Plural,5,kumsolukumsolu,TrialList1,1,5,"-999,999",1,567057,0,5,1084,568141,74,1,107
